"Time (s)","Acceleration x (m/s^2)","Acceleration y (m/s^2)","Acceleration z (m/s^2)","Absolute acceleration (m/s^2)"
-2.311666613E-4,-6.918612671E-1,3.203338623E0,7.619754639E0,8.294619407E0
9.753833321E-3,-7.340734863E-1,3.415447540E0,7.085066528E0,7.899513497E0
1.973883333E-2,-4.809498596E-1,3.194207611E0,7.066505127E0,7.769798565E0
2.972483332E-2,-2.996768188E-1,2.600691833E0,7.904163208E0,8.326415809E0
3.970983333E-2,3.008743286E-2,2.082020416E0,8.811725922E0,9.054403790E0
4.969483335E-2,-3.463796997E-1,2.270478516E0,1.001701950E1,1.027695146E1
5.968083334E-2,-3.451821899E-1,1.967508545E0,1.149504593E1,1.166731852E1
6.966583335E-2,1.083446960E0,1.122066650E0,1.146885040E1,1.157442959E1
7.965083333E-2,2.533032532E0,2.067201233E-1,9.800270233E0,1.012443992E1
8.963683332E-2,2.223925323E0,-3.893403625E-1,8.796307983E0,9.081435123E0
9.962183333E-2,1.545536041E0,-5.373825073E-2,7.144043884E0,7.309509729E0
1.096067083E-1,4.049079895E-1,6.216572571E-1,7.918233948E0,7.952913748E0
1.195927083E-1,9.816586304E-1,9.955796814E-1,8.831335144E0,8.941326132E0
1.295777083E-1,2.369273071E0,9.416917419E-1,9.935439148E0,1.025734806E1
1.395627083E-1,2.781216431E0,9.883946228E-1,1.031055908E1,1.072472458E1
1.495487083E-1,2.310894470E0,1.153052216E0,1.041863434E1,1.073395100E1
1.595337083E-1,2.104174347E0,7.541317749E-1,1.038330780E1,1.062117438E1
1.695187083E-1,2.157164154E0,2.474354553E-1,1.103774689E1,1.124928610E1
1.795037083E-1,2.085313568E0,-8.382568359E-2,1.133787277E1,1.152835281E1
1.894897083E-1,1.638343048E0,-7.903564453E-2,1.119102814E1,1.131059350E1
1.994747083E-1,1.373244324E0,-4.640350342E-3,1.044902115E1,1.053887397E1
2.094607083E-1,1.627715149E0,6.110293579E-1,1.008213409E1,1.023094528E1
2.194457083E-1,2.189047852E0,1.253193970E0,1.017464172E1,1.048264088E1
2.294307083E-1,2.424508209E0,1.597028961E0,1.038285873E1,1.078111762E1
2.394157083E-1,2.337988129E0,2.211201782E0,1.057221497E1,1.105112352E1
2.494017083E-1,1.629810791E0,2.543211365E0,1.044617706E1,1.087413548E1
2.593867083E-1,3.986210632E-1,3.044967957E0,1.081111816E1,1.123881687E1
2.693717083E-1,-7.185058594E-1,3.419489136E0,1.060963715E1,1.117020846E1
2.793577083E-1,-2.393522644E0,3.094664612E0,9.840237122E0,1.058943654E1
2.893427083E-1,-2.383194122E0,2.414479065E0,1.004516098E1,1.060257433E1
2.993277083E-1,1.149609375E-1,1.582359467E0,1.004111938E1,1.016568522E1
3.093137083E-1,3.529210968E0,-9.192384338E-1,9.471703491E0,1.014955646E1
3.192987083E-1,5.491181030E0,-4.890929260E0,8.572822723E0,1.129458045E1
3.292837083E-1,5.744604034E0,-5.264851685E0,9.062753906E0,1.195209802E1
3.392697083E-1,5.863307190E0,-3.350931702E0,1.027897476E1,1.229896079E1
3.492547083E-1,4.021686859E0,-5.635780334E-1,1.001612137E1,1.080806517E1
3.592397083E-1,3.348386993E0,1.164278870E0,9.216783600E0,9.875036236E0
3.692257083E-1,3.476071472E0,1.526226196E0,8.501570892E0,9.310700667E0
3.792107083E-1,3.012635193E0,1.394649811E0,8.788374481E0,9.394495459E0
3.891957083E-1,3.343447266E0,9.318122864E-1,9.288634186E0,9.915928539E0
3.991817083E-1,3.807332611E0,3.206332397E-1,9.554032288E0,1.028970943E1
4.091667083E-1,4.430337067E0,-9.804611206E-2,9.667047272E0,1.063434542E1
4.191517083E-1,4.768483887E0,1.046324158E-1,8.978928223E0,1.016713030E1
4.291377083E-1,4.346661072E0,6.628216553E-1,7.732170868E0,8.894900862E0
4.391227083E-1,4.587809601E0,1.217118988E0,7.246880035E0,8.662946716E0
4.491077083E-1,4.748575287E0,1.725012817E0,7.655829620E0,9.172587620E0
4.590937083E-1,4.809498596E0,1.725012817E0,7.831863556E0,9.351204881E0
4.690787083E-1,4.728966064E0,1.855092316E0,7.486232300E0,9.046997380E0
4.790637083E-1,4.585564270E0,1.983974304E0,6.940317535E0,8.551699317E0
4.890497083E-1,4.649032288E0,1.754052429E0,7.454049225E0,8.958406721E0
4.990347083E-1,4.490362244E0,1.786684570E0,7.689659271E0,9.082205379E0
5.090197083E-1,3.896696777E0,2.066602478E0,7.497908020E0,8.699064102E0
5.190057083E-1,3.771407318E0,2.179767151E0,7.322173462E0,8.519925011E0
5.289907083E-1,4.080065460E0,2.559377747E0,7.206464081E0,8.667783636E0
5.389757083E-1,4.677622833E0,2.908002777E0,6.747219086E0,8.709856538E0
5.489617083E-1,5.428311768E0,3.201392670E0,6.730903015E0,9.220658278E0
5.589467083E-1,5.866151276E0,3.231330414E0,7.108118591E0,9.766195623E0
5.689317083E-1,6.233188019E0,2.734812927E0,8.376431122E0,1.079335133E1
5.789177083E-1,6.052663422E0,1.789229279E0,1.043150757E1,1.219231012E1
5.889027083E-1,4.933590546E0,1.049317932E-1,1.185968765E1,1.284536950E1
5.988877083E-1,3.574866028E0,-1.478625183E0,1.195623688E1,1.256652696E1
6.088737083E-1,2.837948456E0,-2.052082672E0,1.116094070E1,1.169750367E1
6.188587083E-1,2.890638885E0,-3.082539825E0,1.022373962E1,1.106267132E1
6.288437083E-1,2.528541870E0,-4.372407532E0,9.641749878E0,1.088461356E1
6.388297083E-1,2.319875793E0,-5.523214417E0,8.117918701E0,1.008902003E1
6.488147083E-1,2.788401489E0,-6.680308228E0,6.124514008E0,9.482160762E0
6.587997083E-1,3.058140564E0,-7.559729462E0,4.961582336E0,9.545628975E0
6.687857083E-1,2.775677948E0,-7.505392456E0,2.921175385E0,8.518718778E0
6.787707083E-1,4.214186554E0,-6.820117493E0,1.651365967E0,8.185376013E0
6.887557083E-1,5.442382507E0,-6.257587280E0,2.491568756E0,8.659378776E0
6.987417083E-1,5.879922638E0,-5.280419312E0,3.515738983E0,8.649666984E0
7.087267083E-1,6.845414886E0,-3.669020233E0,3.258573761E0,8.422571899E0
7.187117083E-1,8.156239014E0,-1.840722198E0,2.193837891E0,8.644386488E0
7.286977083E-1,1.017389328E1,-4.266128540E-2,6.521937561E-1,1.019486543E1
7.386827083E-1,1.238494537E1,1.537303162E0,-1.872605896E-1,1.248139573E1
7.486677083E-1,1.429182999E1,3.230282593E0,1.507365417E-1,1.465311747E1
7.586537083E-1,1.602028564E1,5.054838409E0,2.968327332E-1,1.680145985E1
7.686387083E-1,1.703697144E1,6.090534668E0,-6.116281128E-1,1.810323444E1
7.786237083E-1,1.793570251E1,6.586603088E0,-9.550140381E-1,1.913072965E1
7.886097083E-1,1.895433426E1,6.154152374E0,-7.595205688E-1,1.994284960E1
7.985947083E-1,1.922646835E1,5.618865509E0,1.315015411E0,2.007381380E1
8.085797083E-1,1.933110077E1,5.780080261E0,2.334096222E0,2.031129710E1
8.185657083E-1,1.869567215E1,5.088069305E0,1.715133362E0,1.945143411E1
8.285507083E-1,1.747810410E1,3.907324677E0,-8.454418945E-1,1.792947520E1
8.385357083E-1,1.586715408E1,3.041076050E0,-3.460803223E0,1.652246595E1
8.485217083E-1,1.324086548E1,1.804048462E0,-5.481151886E0,1.444361920E1
8.585067083E-1,1.008348129E1,3.547622681E-2,-6.961423645E0,1.225313318E1
8.684917083E-1,8.196505280E0,-2.483036499E0,-7.736062775E0,1.154100673E1
8.784777083E-1,8.011639709E0,-3.443589020E0,-7.600744171E0,1.156788607E1
8.884627083E-1,9.812993774E0,1.689237213E0,-7.535779266E0,1.248744723E1
8.984477083E-1,1.106349335E1,2.943778381E0,-5.113366699E0,1.253847021E1
9.084337083E-1,1.289104294E1,7.813751221E-1,-3.061433716E0,1.327260003E1
9.184187083E-1,1.248299149E1,1.208287354E0,-1.669328613E0,1.265194423E1
9.284037083E-1,1.032507889E1,-2.059567108E0,-2.022444305E0,1.072097718E1
9.383887083E-1,7.646399231E0,-4.129013672E0,-2.085313568E0,8.936705645E0
9.483747083E-1,4.745581512E0,-6.513255615E0,-1.488804016E0,8.195094874E0
9.583597083E-1,2.869083710E0,-1.039977356E1,-1.009800110E0,1.083543389E1
9.683447083E-1,3.304079132E0,-1.140583145E1,4.787045288E-1,1.188440525E1
9.783307083E-1,4.491110687E0,-1.030531998E1,3.008743286E-2,1.124146789E1
9.883157083E-1,5.094954987E0,-7.792495422E0,-1.769919434E0,9.477033609E0
9.983007083E-1,4.654870148E0,-7.161108398E0,-2.776875458E0,8.981109447E0
1.008286708E0,5.092859344E0,-8.925938416E0,-2.677781525E0,1.061979787E1
1.018271708E0,4.896916809E0,-9.922116852E0,-1.406475220E0,1.115376033E1
1.028256708E0,4.279301147E0,-1.061652283E1,1.156794434E0,1.150483153E1
1.038242708E0,3.840264130E0,-9.228609009E0,1.922003174E-1,9.997589399E0
1.048227708E0,3.374432831E0,-7.021149445E0,1.081650696E0,7.864687195E0
1.058212708E0,2.745590515E0,-5.775290222E0,1.469793549E0,6.561443248E0
1.068198708E0,3.251987457E0,-5.858816528E0,5.032534790E-1,6.719703684E0
1.078183708E0,4.743785248E0,-5.968987427E0,-6.614744568E-1,7.653094657E0
1.088168708E0,8.516988831E0,-6.057902527E0,-2.347418518E0,1.071203321E1
1.098154708E0,1.350057541E1,-6.517596588E0,-4.321812744E0,1.560200843E1
1.108140500E0,1.254107071E1,-6.550528107E0,-3.613635406E0,1.460295292E1
1.118125500E0,9.916877747E0,-6.823111267E0,-2.524500275E0,1.229928507E1
1.128111500E0,8.141868896E0,-7.049141235E0,-1.479074249E0,1.087051434E1
1.138096500E0,6.892417145E0,-6.425987091E0,-9.029223633E-1,9.466466764E0
1.148081500E0,5.686075745E0,-5.735023956E0,-5.872288513E-1,8.097332578E0
1.158067500E0,4.021237793E0,-4.797224121E0,-4.800517273E-1,6.278069952E0
1.168052500E0,2.391427002E0,-3.929628296E0,-2.639012146E-1,4.607661609E0
1.178037500E0,1.600471802E0,-3.143313446E0,2.865042114E-1,3.538928379E0
1.188023500E0,8.818162537E-1,-2.608325958E0,2.414479065E-1,2.763921363E0
1.198008500E0,2.285746765E-1,-3.303181000E0,-9.071136475E-1,3.433089901E0
1.207993500E0,3.201841736E-1,-5.527256012E0,-1.185384979E0,5.661997393E0
1.217979500E0,3.014730835E-1,-8.937015381E0,3.382965088E-1,8.948495654E0
1.227964500E0,7.671546936E-1,-6.688241730E0,4.903802490E-1,6.749931596E0
1.237949500E0,7.885601807E-1,-9.608518982E0,2.041454773E0,9.854592928E0
1.247935500E0,1.723964996E0,-1.074944641E1,1.504671021E0,1.099029974E1
1.257920500E0,2.921774139E0,-1.713636475E1,-7.680528259E-1,1.740062257E1
1.267905500E0,1.291364594E0,-2.586291779E1,-4.981640625E-1,2.589992869E1
1.277891500E0,-2.014061737E0,-3.050296875E1,2.721939697E0,3.069033240E1
1.287876500E0,-1.428629150E0,-2.663770660E1,5.676196289E0,2.727320294E1
1.297861500E0,-7.881111145E-1,-1.741089386E1,6.849157104E0,1.872621951E1
1.307847500E0,-2.584226074E0,-1.028361511E1,6.748715973E0,1.256885561E1
1.317832500E0,-3.849993896E0,-6.171516266E0,6.216871948E0,9.568676128E0
1.327817500E0,-4.518653412E0,-4.698728943E0,4.605323181E0,7.981558992E0
1.337803500E0,-4.769980774E0,-3.999832306E0,2.724933472E0,6.795339394E0
1.347788500E0,-4.872068481E0,-3.463048553E0,1.197958832E0,6.096299036E0
1.383811792E0,3.040477295E0,2.994672546E0,9.650731201E0,1.055221202E1
1.393796792E0,3.055296478E0,2.748733978E0,8.799152069E0,9.711614294E0
1.403781792E0,2.634671173E0,2.501897278E0,8.395740967E0,9.148193732E0
1.413767792E0,1.576371918E0,2.161654816E0,9.141041107E0,9.524512192E0
1.423752792E0,5.727090454E-1,2.054777069E0,1.011282028E1,1.033533930E1
1.433737792E0,9.969268799E-2,2.025438080E0,1.073432785E1,1.092419940E1
1.443722792E0,1.661544800E-2,1.940863953E0,1.074016571E1,1.091413709E1
1.453707792E0,3.115022278E-1,1.807790680E0,1.032747391E1,1.048913047E1
1.463693792E0,4.794529724E-1,1.726210327E0,9.816735992E0,9.978876830E0
1.473678792E0,1.381626892E-1,2.112856293E0,9.478589172E0,9.712203835E0
1.483663792E0,-4.827461243E-1,2.439477081E0,9.451046448E0,9.772736117E0
1.493648792E0,-8.023315430E-1,2.551444244E0,9.620344391E0,9.985220570E0
1.503633792E0,-1.039139099E0,2.674638062E0,9.624535675E0,1.004316612E1
1.513619792E0,-1.355880432E0,2.818638611E0,1.001701950E1,1.049398947E1
1.523604792E0,-2.412832489E0,2.946173401E0,1.042387344E1,1.109769507E1
1.533589792E0,-3.607049103E0,2.819387054E0,1.001806732E1,1.101460029E1
1.543574792E0,-3.928281097E0,2.834505615E0,9.454788666E0,1.062350428E1
1.553559792E0,-3.441942444E0,3.179238739E0,8.881031799E0,1.004127744E1
1.563545292E0,-2.878065033E0,3.320395203E0,8.342900848E0,9.429330687E0
1.573531292E0,-2.294279022E0,3.318149872E0,8.117319946E0,9.064475601E0
1.583516292E0,-1.663790131E0,3.115471344E0,8.080197144E0,8.818386767E0
1.593501292E0,-1.348246307E0,2.996019745E0,7.933801575E0,8.587147946E0
1.603486292E0,-5.005590820E-1,2.694247284E0,5.390141144E0,6.046747007E0
1.613472292E0,7.649093628E-2,2.103276215E0,4.836292877E0,5.274405226E0
1.623457292E0,-1.799258423E-1,1.812580719E0,7.585775299E0,7.801397891E0
1.633442292E0,-1.543590088E0,1.697919159E0,7.640561371E0,7.977705052E0
1.643427292E0,-2.874921570E0,1.979932709E0,8.152047729E0,8.867986792E0
1.653412292E0,-3.106040955E0,2.852168884E0,8.715625763E0,9.682173836E0
1.663397292E0,-3.007695465E0,2.107018433E0,8.688382416E0,9.432589660E0
1.673383292E0,-3.369642792E0,1.811383209E0,9.741592255E0,1.046585980E1
1.683368292E0,-2.740201721E0,3.785627747E0,1.042507095E1,1.142461322E1
1.693353292E0,-1.553469543E0,4.026626587E0,1.011566437E1,1.099789320E1
1.703338292E0,-2.076182556E0,3.235821075E0,9.993218994E0,1.070726379E1
1.713323292E0,-2.572250977E0,2.176623688E0,1.031370255E1,1.085019013E1
1.723309292E0,-2.005080414E0,1.719773712E0,9.723479919E0,1.007591340E1
1.733294292E0,-1.803449707E0,1.026415558E0,9.380093994E0,9.606878946E0
1.743279292E0,-1.974094849E0,7.351213074E-1,9.658365326E0,9.885417269E0
1.753264292E0,-2.711311798E0,1.096469879E0,9.481732635E0,9.922535545E0
1.763249292E0,-2.936144257E0,1.281485138E0,9.323511658E0,9.858550445E0
1.773235292E0,-2.048789520E0,9.098080444E-1,9.363179169E0,9.627793793E0
1.783220292E0,-1.887425079E0,-1.441502380E-1,9.599687347E0,9.784536263E0
1.793205292E0,-1.944007416E0,-8.764274597E-1,9.844727783E0,1.007303108E1
1.803190292E0,-1.534908142E0,-9.755213928E-1,9.829908600E0,9.996733870E0
1.813175292E0,-1.222208405E0,-7.207511902E-1,9.820328522E0,9.922304568E0
1.823161292E0,-6.435118103E-1,3.592529297E-1,9.812544708E0,9.840183117E0
1.833146292E0,-1.135239258E0,-2.357597351E-1,9.305998077E0,9.377950258E0
1.843131292E0,-8.285270691E-1,-2.579136658E-1,9.112450562E0,9.153673132E0
1.853116292E0,-7.798782349E-2,-6.746470642E-1,9.612560577E0,9.636521759E0
1.863101292E0,9.762698364E-1,-2.011816406E0,1.017673737E1,1.041952453E1
1.873087292E0,1.315015411E0,-2.208357697E0,1.003034180E1,1.035441287E1
1.883072292E0,9.595046997E-1,-1.409019928E0,8.440497894E0,8.610922780E0
1.893057292E0,4.700225830E-2,-6.511459351E-2,6.336772614E0,6.337281458E0
1.903042292E0,-4.794529724E-1,3.806584167E-1,5.317542114E0,5.352665702E0
1.913027292E0,4.908293152E-1,-7.854167175E-1,4.234544220E0,4.334646189E0
1.923012292E0,2.240241394E0,-2.796185303E0,4.133055267E0,5.469870162E0
1.932998292E0,3.369343414E0,-5.411247253E0,5.254822540E0,8.261188281E0
1.942983292E0,3.825444946E0,-6.801855469E0,6.388115845E0,1.008500327E1
1.952968292E0,4.363126831E0,-7.101382599E0,7.811954956E0,1.142335987E1
1.962953292E0,2.866988068E0,-8.006400604E0,8.632548523E0,1.211787792E1
1.972938292E0,-9.550140381E-2,-8.493188324E0,8.909921722E0,1.230975522E1
1.982924292E0,-3.036136322E0,-8.351133728E0,8.404123535E0,1.223065210E1
1.992909292E0,-5.064119110E0,-7.654931488E0,7.277416534E0,1.171341410E1
2.002894292E0,-5.733227692E0,-7.404053192E0,6.283184052E0,1.127689254E1
2.012879292E0,-5.130281525E0,-7.552095337E0,5.606890411E0,1.071406331E1
2.022864292E0,-3.770359497E0,-7.672145691E0,5.252427521E0,1.003321609E1
2.032850292E0,-2.804717560E0,-7.522007904E0,5.405110016E0,9.677926316E0
2.042835292E0,-2.060465240E0,-7.032525787E0,5.406157837E0,9.106507482E0
2.052820292E0,-2.017055511E0,-6.289171600E0,5.881718903E0,8.844026775E0
2.062805292E0,-4.196672974E0,-5.518723755E0,6.994205475E0,9.848212333E0
2.072790292E0,-7.367978210E0,-5.107229462E0,7.542515259E0,1.171581974E1
2.082776292E0,-1.034034714E1,-4.582570496E0,7.565717010E0,1.360745403E1
2.092761292E0,-1.286275177E1,-3.524570618E0,7.577991486E0,1.533945684E1
2.102746292E0,-1.504117172E1,-2.817291412E0,7.563172302E0,1.706972621E1
2.112731292E0,-1.670376434E1,-2.404749298E0,7.732470245E0,1.856312631E1
2.122716292E0,-1.727392868E1,-1.233734436E0,7.694598999E0,1.895039753E1
2.132701292E0,-1.682067123E1,3.049159241E-1,7.332501984E0,1.835193559E1
2.142687292E0,-1.641306885E1,1.451381836E0,7.145690460E0,1.795985051E1
2.152672292E0,-1.610351257E1,2.186054077E0,7.064559174E0,1.772032579E1
2.162657292E0,-1.631397491E1,2.291584625E0,7.264243927E0,1.800462100E1
2.172642292E0,-1.725476852E1,2.789598999E0,7.444918213E0,1.899830799E1
2.182627292E0,-1.819690933E1,3.734583893E0,8.032596130E0,2.023850851E1
2.192613292E0,-1.897005157E1,3.871698761E0,9.654473419E0,2.163473515E1
2.202598292E0,-1.944860641E1,3.322191467E0,1.115076187E1,2.266329054E1
2.212583292E0,-1.924532913E1,2.821333008E0,1.150866760E1,2.260070891E1
2.222568292E0,-1.860511047E1,2.500400391E0,1.112232101E1,2.181990290E1
2.232553292E0,-1.792761932E1,2.170785828E0,1.048479675E1,2.088163807E1
2.242539292E0,-1.650662430E1,1.995799713E0,9.867779846E0,1.933455304E1
2.252524292E0,-1.452474564E1,1.497186584E0,9.404642944E0,1.736827891E1
2.262509292E0,-1.225187210E1,9.394464111E-1,9.013656006E0,1.523932164E1
2.272494292E0,-9.871072998E0,6.605763245E-1,8.481961670E0,1.303142805E1
2.282479292E0,-7.315587158E0,5.665718079E-1,7.683671722E0,1.062438846E1
2.292465292E0,-5.385800171E0,2.983296204E-1,6.633455658E0,8.549770641E0
2.302450292E0,-4.379891968E0,-3.387455750E-1,5.346581726E0,6.919836585E0
2.312435292E0,-4.225712585E0,-1.246607666E0,3.973636780E0,5.932998128E0
2.322420292E0,-4.731361084E0,-1.923350372E0,2.334395599E0,5.615554930E0
2.332405292E0,-5.060526581E0,-2.178120575E0,9.018745422E-1,5.582697932E0
2.342391292E0,-5.735323334E0,-2.198478241E0,3.402424622E-1,6.151666868E0
2.352376292E0,-6.585854645E0,-1.949246521E0,1.622625732E0,7.057333609E0
2.362361292E0,-6.115382996E0,-1.987566833E0,1.087892715E1,1.263722229E1
2.372346292E0,-5.969735870E0,-6.442602539E-1,1.383183655E1,1.507887661E1
2.382331292E0,-8.015082550E0,2.543211365E-1,5.290598145E0,9.607114877E0
2.392317292E0,-1.016625916E1,-1.920955353E0,1.606309662E0,1.047010627E1
2.402302292E0,-1.145522873E1,-3.945345612E0,2.000889130E0,1.227972209E1
2.412287292E0,-1.058778259E1,-3.619024200E0,3.110681305E0,1.161356167E1
2.422272292E0,-8.853339386E0,-3.414399719E0,2.884950714E0,9.917796345E0
2.432257292E0,-6.349196777E0,-3.326233063E0,4.264781342E0,8.340532717E0
2.442243292E0,-5.194048920E0,-2.584675140E0,2.068548431E0,6.159349184E0
2.452228292E0,-5.060676270E0,-3.929927673E0,1.221010895E0,6.522702157E0
2.462213292E0,-6.081104279E0,-5.028642883E0,3.411855011E0,8.596966506E0
2.472198292E0,-5.631738739E0,-4.431384888E0,2.503992920E0,7.591023237E0
2.482183292E0,-4.475093994E0,-3.952680359E0,1.550176392E0,6.168727188E0
2.492168292E0,-3.788920898E0,-3.962559814E0,2.113305359E0,5.875700928E0
2.502154292E0,-3.850592651E0,-4.382885742E0,3.088377686E0,6.601123232E0
2.512139292E0,-4.690046997E0,-4.522545319E0,3.801195374E0,7.543145449E0
2.522124292E0,-3.881428528E0,-4.057612152E0,3.246598663E0,6.486147291E0
2.532109292E0,-3.050955505E0,-3.452420654E0,2.827021179E0,5.405514464E0
2.542094292E0,-2.644999695E-1,-2.119891663E0,3.299438782E0,3.930673882E0
2.552080292E0,1.691632233E0,-1.416055298E0,3.550766144E0,4.180283773E0
2.562064958E0,1.678160248E0,-1.994153137E0,3.665577393E0,4.497702322E0
2.572049958E0,-4.029620361E-1,-3.849095764E0,3.179837494E0,5.008920352E0
2.582034958E0,-3.628304901E0,-6.740782471E0,4.802014160E-1,7.670289315E0
2.592019958E0,-5.607788544E0,-9.893226929E0,-6.639892273E0,1.316857626E1
2.602005958E0,-7.676037598E0,-1.137275024E1,-8.390651550E0,1.608303562E1
2.611990958E0,-8.616531830E0,-1.153845566E1,-4.884941711E0,1.520668390E1
2.621975958E0,-1.046339127E1,-1.358170670E1,1.972448273E0,1.725792183E1
2.631960958E0,-1.028151947E1,-1.455977280E1,4.195026398E0,1.831105876E1
2.641945958E0,-1.133368149E1,-1.489806931E1,7.233857117E0,2.006822099E1
2.651931958E0,-1.092802505E1,-1.454914490E1,6.724616089E0,1.939896416E1
2.661916958E0,-8.994196472E0,-1.377136230E1,4.943170624E0,1.717500875E1
2.671901958E0,-7.012168121E0,-1.388407791E1,4.637206879E0,1.623089057E1
2.681886958E0,-5.098846893E0,-1.323906921E1,4.438569946E0,1.486513022E1
2.691871958E0,-4.423152008E0,-1.168919220E1,3.026406555E0,1.285926221E1
2.701857958E0,-3.613485718E0,-9.996512146E0,1.332678680E0,1.071277586E1
2.711842958E0,-2.370769958E0,-8.170160065E0,1.365011444E0,8.615992219E0
2.721827958E0,-1.110839996E0,-7.528743896E0,2.383643188E0,7.974816926E0
2.731812958E0,-1.817071381E0,-6.801855469E0,2.478695526E0,7.463974660E0
2.741797958E0,-2.290985870E0,-6.646029510E0,3.212170258E0,7.728930216E0
2.751783958E0,-1.956431580E0,-6.707252197E0,2.618654480E0,7.461381095E0
2.761768958E0,-1.159339142E0,-7.317383423E0,1.762285309E0,7.615367155E0
2.771753958E0,-9.190887451E-2,-8.280630341E0,1.138831787E0,8.359080327E0
2.781738958E0,1.916015625E-2,-8.073311462E0,9.581575012E-1,8.129993289E0
2.791723958E0,1.829196167E-1,-8.199798431E0,8.286767578E-1,8.243595033E0
2.801709958E0,-3.079096985E-1,-7.832162933E0,8.750802612E-1,7.886910045E0
2.811694958E0,-8.791218567E-1,-7.179819489E0,6.753955078E-1,7.264903456E0
2.821679958E0,-1.560205536E0,-6.672524414E0,4.613406372E-1,6.868017076E0
2.831664958E0,-2.378104706E0,-7.531737671E0,3.158432007E-2,7.898319562E0
2.841649958E0,-1.871558075E0,-8.288264465E0,-5.295986938E-1,8.513432460E0
2.851634958E0,-1.325942688E0,-7.860903168E0,3.347039795E-1,7.978969193E0
2.861620958E0,-1.121467896E0,-7.695347443E0,1.360969849E0,7.894827511E0
2.871605958E0,1.185534668E0,-7.096143494E0,1.601070557E0,7.370493325E0
2.881590958E0,1.305734711E0,-5.700445862E0,1.025667114E0,5.937341087E0
2.891575958E0,8.689430237E-1,-4.605622559E0,3.809577942E-1,4.702334524E0
2.901560958E0,1.637893982E0,-4.561913452E0,1.002914429E-2,4.847045659E0
2.911546958E0,7.695347443E0,-1.724159592E1,4.505630493E-2,1.888102307E1
2.921531958E0,1.924862228E1,-3.972648834E1,9.026229858E-2,4.414421234E1
2.931516958E0,8.106242981E0,-3.246179535E1,-3.131488037E-1,3.346008659E1
2.941501958E0,2.869682465E0,-1.437071594E1,-1.115180969E-1,1.465486235E1
2.951486958E0,4.738097076E0,-7.084916840E0,3.146157532E0,9.085368333E0
2.961472958E0,3.297941895E0,-6.825955353E0,6.128106537E0,9.748014000E0
2.971457958E0,2.637215881E0,-8.381221161E0,3.471281433E0,9.447199084E0
2.981442958E0,2.882855072E0,-9.959688721E0,5.845344543E-1,1.038498596E1
2.991427958E0,3.007396088E0,-9.964628448E0,1.362167358E-2,1.040857516E1
3.001412958E0,2.380200348E0,-9.688901825E0,3.164419556E-1,9.981999188E0
3.011398958E0,1.673220520E0,-9.482331390E0,3.948788452E-1,9.636918844E0
3.021383958E0,1.590742035E0,-9.495503998E0,4.834945679E-1,9.639959719E0
3.031368958E0,1.481319580E0,-9.704319763E0,5.276527405E-1,9.830897577E0
3.041353958E0,1.244062958E0,-9.695039063E0,8.990304565E-1,9.815789873E0
3.051338958E0,1.405577087E0,-9.611812134E0,1.503174133E0,9.829654720E0
3.061324958E0,1.927391968E0,-9.658814392E0,1.781445465E0,1.000905006E1
3.071309958E0,2.374961243E0,-9.677974548E0,1.964963837E0,1.015700326E1
3.081294958E0,2.582280121E0,-9.658215637E0,2.231110382E0,1.024339560E1
3.091279958E0,2.793041840E0,-9.667346649E0,2.482437744E0,1.036441851E1
3.101264958E0,2.783461761E0,-9.638307037E0,2.514620819E0,1.034253063E1
3.111250958E0,2.857857056E0,-9.321266327E0,2.513123932E0,1.006822451E1
3.121235958E0,3.021915894E0,-9.143585815E0,2.508932648E0,9.951476286E0
3.131220958E0,3.181633759E0,-9.203461304E0,2.337239685E0,1.001444870E1
3.141205958E0,3.114124146E0,-9.203311615E0,2.083367615E0,9.936756739E0
3.151190958E0,2.737507324E0,-9.299411774E0,1.503623199E0,9.809887278E0
3.161176958E0,1.542841644E0,-9.452243958E0,1.490450592E0,9.692611575E0
3.171161958E0,-5.056484985E-1,-9.033714294E0,1.485959930E0,9.169064907E0
3.181146958E0,-1.912123718E0,-7.809559937E0,4.897814941E-1,8.055143042E0
3.191131958E0,-8.578660583E-1,-5.908064117E0,-1.917512512E-1,5.973100060E0
3.201116958E0,2.543211365E-1,-3.948339386E0,-1.046324158E-1,3.957904886E0
3.211101958E0,1.150208130E0,-2.833158417E0,2.634521484E-2,3.057852094E0
3.221087958E0,1.312321014E0,-1.264869690E0,8.729846191E-1,2.020936397E0
3.231072958E0,1.225950623E-1,8.205935669E-1,1.242266693E0,1.493864080E0
3.241057958E0,-4.745132446E-1,2.637814636E0,2.802322540E0,3.877659151E0
3.251042958E0,-5.643264771E-1,2.930456085E0,1.817071381E0,3.493964173E0
3.261027958E0,1.432521057E-1,6.737489319E-1,1.766326904E-2,6.890361239E-1
3.271013958E0,2.215093689E0,-2.428998871E0,2.203268280E0,3.957406560E0
3.280998958E0,4.898862762E0,-5.291496277E0,2.176773376E0,7.532405429E0
3.290983958E0,5.682632904E0,-8.647517395E0,1.539099426E0,1.046139096E1
3.300968958E0,5.642516327E0,-1.361628479E1,5.369933167E0,1.568685387E1
3.310954958E0,9.187444611E0,-2.013927017E1,7.385791168E0,2.333557912E1
3.320939958E0,1.155073013E1,-2.673665085E1,6.164929962E0,2.977035819E1
3.330924958E0,5.785618744E0,-3.047003723E1,1.088521408E1,3.286920198E1
3.340909958E0,-2.526595917E0,-3.340692993E1,2.109443390E1,3.959017297E1
3.350894958E0,-2.190993805E0,-3.169898163E1,9.304052124E0,3.310877944E1
3.360879958E0,6.688391418E0,-2.444416809E1,8.814120941E0,2.683171000E1
3.370865958E0,9.670041046E0,-1.959844482E1,1.007479935E1,2.406471099E1
3.380850958E0,7.460934906E0,-1.875973892E1,3.921096039E0,2.056619431E1
3.390835958E0,5.101092224E0,-2.092723160E1,3.062331848E0,2.175656316E1
3.400820958E0,3.798950043E0,-2.194930618E1,1.050515442E0,2.230039565E1
3.410805958E0,4.658462677E0,-2.498753815E1,3.356021118E-1,2.542028650E1
3.420791958E0,6.504124603E0,-3.144705551E1,3.230282593E-1,3.211425360E1
3.430776958E0,6.945556641E0,-3.537563599E1,1.366957397E0,3.607693101E1
3.440761958E0,5.644312592E0,-3.151486450E1,3.673510895E0,3.222638099E1
3.450746958E0,5.039719849E0,-2.356354935E1,4.640649719E0,2.453925964E1
3.460731958E0,4.336182861E0,-1.619332581E1,4.692292328E0,1.740815584E1
3.470717958E0,2.327210541E0,-1.066202820E1,5.204078064E0,1.209037562E1
3.480702958E0,1.417402496E0,-6.030359802E0,6.208190002E0,8.770170596E0
3.490687958E0,1.380429382E0,-2.942880249E0,5.285808105E0,6.205311980E0
3.500672958E0,9.430389404E-3,-2.228865051E0,2.161355438E0,3.104736008E0
3.510657958E0,-4.189787292E-1,-1.460512848E0,9.635462952E-1,1.799183820E0
3.520643958E0,6.098318481E-1,1.250349884E0,3.528163147E0,3.792519599E0
3.530628958E0,2.621797943E0,4.655319214E0,8.010741577E0,9.629008363E0
3.540613958E0,3.900588684E0,5.313650208E0,7.013066254E0,9.624581492E0
3.550598958E0,2.218985596E0,1.174457703E0,2.176473999E0,3.322692739E0
3.560583958E0,-9.029223633E-1,-2.213896179E0,-1.466650085E0,2.804936284E0
3.570569792E0,-2.816992035E0,-1.885928192E0,-4.381987610E0,5.540215220E0
3.580554792E0,-3.520229645E0,-1.144669647E0,-4.656965790E0,5.948917189E0
3.590539792E0,-3.412004700E0,-2.776725769E-1,-2.949466553E0,4.518653680E0
3.600524792E0,-2.939138031E0,7.716453552E-1,-1.221609650E0,3.275102908E0
3.610509792E0,-2.152673492E0,1.385369110E0,-7.908055115E-1,2.679295447E0
3.620495792E0,-1.526226196E0,1.660796356E0,-1.646126862E0,2.792372572E0
3.630480792E0,-1.197809143E0,1.486408997E0,-2.693648529E0,3.301499787E0
3.640465792E0,-6.282435608E-1,9.897418213E-1,-2.906954956E0,3.134432319E0
3.650450792E0,7.005432129E-2,3.778143311E-1,-2.653981018E0,2.681653691E0
3.660435792E0,5.644761658E-1,-1.733395386E-1,-2.294578400E0,2.369339564E0
3.670421792E0,9.675878906E-1,-4.679269409E-1,-1.742825775E0,2.047589712E0
3.680406792E0,1.461261292E0,-6.497987366E-1,-1.121467896E0,1.953257075E0
3.690391792E0,1.934577026E0,-6.834786987E-1,-5.863307190E-1,2.133896697E0
3.700376792E0,2.076332245E0,-2.362088013E-1,-1.131646729E-1,2.092786762E0
3.710361792E0,1.754800873E0,5.403762817E-1,6.393205261E-1,1.944238505E0
3.720347792E0,1.149908752E0,1.019978943E0,1.587299194E0,2.209562381E0
3.730332792E0,7.453001404E-1,1.257984009E0,1.923500061E0,2.416164016E0
3.740317792E0,4.245172119E-1,1.612147522E0,1.922302551E0,2.544500264E0
3.750302792E0,3.370989990E-1,1.872905273E0,1.772763519E0,2.600788418E0
3.760287792E0,2.130070496E-1,3.387306061E0,2.431244202E0,4.174944637E0
3.770273792E0,9.080117798E-1,3.357667694E0,8.262817383E-2,3.479259282E0
3.780258792E0,6.676116943E-1,1.402882690E0,-2.647544403E0,3.069735589E0
3.790243792E0,-5.924679565E-1,-5.325924683E-1,-3.067121887E-1,8.536658500E-1
3.800228792E0,-5.319937134E-1,-2.736758881E0,2.420616302E0,3.692187667E0
3.810213792E0,-9.244775391E-1,-3.340303802E0,4.038751373E0,5.322010980E0
3.820199792E0,-1.944157104E0,-3.355721741E0,3.273243256E0,5.074912478E0
3.830184792E0,-1.696721649E0,-3.753744049E0,3.325185242E0,5.293988632E0
3.840169792E0,-1.827699280E0,-3.199147339E0,2.998414764E0,4.750317826E0
3.850154792E0,-1.531764679E0,-2.917283478E0,2.622546387E0,4.211246309E0
3.860140792E0,-1.581611023E0,-2.918630676E0,2.544109497E0,4.182390654E0
3.870125792E0,-2.342179413E0,-2.669698334E0,2.528541870E0,4.359657966E0
3.880110792E0,-3.286266174E0,-2.831811218E0,3.888314209E0,5.825606194E0
3.890095792E0,-4.930447083E0,-3.885021057E0,4.906945953E0,7.967484900E0
3.900080792E0,-7.036866760E0,-5.753136292E0,-1.623673553E0,9.233221908E0
3.910065792E0,-2.517614594E0,-8.970994720E0,-3.212170258E0,9.855717492E0
3.920051792E0,9.645791473E0,-1.546449142E1,9.681567078E0,2.063793907E1
3.930036792E0,1.610560822E1,-2.576651825E1,1.097712296E1,3.230791400E1
3.940021792E0,1.264285904E1,-3.670786560E1,8.892108765E0,3.982937208E1
3.950006792E0,3.512595520E0,-3.612363052E1,1.780397644E0,3.633765024E1
3.959991792E0,6.537654877E0,-3.407648758E1,-7.533833313E-1,3.470613092E1
3.969977792E0,7.386689301E0,-4.061833374E1,2.316507797E1,4.733955061E1
3.979962792E0,4.910688171E0,-4.030219116E1,2.711700989E1,4.882329051E1
3.989947792E0,7.255711670E0,-3.527983521E1,1.937421112E0,3.607028867E1
3.999932792E0,1.461351105E1,-2.792473022E1,6.724915466E0,3.222684830E1
4.009917792E0,1.154489227E1,-2.519740173E1,4.396357727E0,2.806281442E1
4.019903792E0,6.705306244E0,-2.795960770E1,1.905387726E0,2.881546975E1
4.029888792E0,3.970792694E0,-3.256957123E1,5.420827332E0,3.325551884E1
4.039873792E0,3.147055664E0,-3.666969498E1,2.222278748E0,3.687152034E1
4.049858792E0,2.787054291E0,-3.669454330E1,3.046165466E-1,3.680149414E1
4.059843792E0,1.879790955E0,-3.190270798E1,3.222199402E0,3.212007097E1
4.069829792E0,2.590812378E0,-2.701192841E1,4.095034332E0,2.744313924E1
4.079814792E0,3.478616180E0,-2.277873138E1,4.251459045E0,2.343173656E1
4.089799792E0,4.374353485E0,-1.865944748E1,3.698359222E0,1.951890903E1
4.099784792E0,4.753215637E0,-1.395248566E1,2.821033630E0,1.500743634E1
4.109769792E0,4.982838135E0,-8.932075653E0,2.714904327E0,1.058212440E1
4.119755792E0,4.648882599E0,-4.670587463E0,3.099005585E0,7.282192821E0
4.129740792E0,3.531156921E0,-1.701960754E0,3.315904541E0,5.134292798E0
4.139725792E0,1.653162231E0,-1.722917175E-1,3.267106018E0,3.665598387E0
4.149710792E0,1.344204712E-1,7.054829407E-1,1.869462433E0,2.002664433E0
4.159695792E0,-5.758525085E-1,1.458417206E0,2.854563904E-1,1.593760399E0
4.169681792E0,-4.282594299E-1,1.774709473E0,1.187630310E0,2.177949863E0
4.179666792E0,1.743873596E-1,2.301164703E0,3.312012634E0,4.036731058E0
4.189651792E0,8.897497559E-1,3.359463959E0,4.725972290E0,5.866214009E0
4.199636792E0,1.190624084E0,4.369862823E0,4.055815887E0,6.079714575E0
4.209622792E0,8.367599487E-1,4.678970032E0,8.725355530E-1,4.832623104E0
4.219607792E0,5.477110291E-1,3.926784210E0,-2.243983612E0,4.555774803E0
4.229592792E0,7.713459778E-1,2.727627869E0,-3.056493988E0,4.168582961E0
4.239577792E0,5.168751526E-1,2.277364197E0,-2.437231750E0,3.375447558E0
4.249562792E0,1.047821045E-1,1.831591187E0,-1.826202393E0,2.588575041E0
4.259548792E0,-1.424138489E0,1.360969849E0,-7.521858215E-1,2.108599743E0
4.269533792E0,-3.289559326E0,8.541238403E-1,4.037104797E-1,3.422529802E0
4.279518792E0,-3.566483459E0,4.963677979E-1,2.586621094E-1,3.610137303E0
4.289503792E0,-2.812950439E0,-1.104702759E-1,-1.197958832E0,3.059411581E0
4.299488792E0,-1.704505463E0,-1.288221130E0,-2.210752716E0,3.074456070E0
4.309474792E0,-8.150550842E-1,-2.433938599E0,-1.381028137E0,2.914723076E0
4.319459792E0,-3.297642517E-1,-3.021616516E0,4.984634399E-2,3.039966363E0
4.329444792E0,-2.544708252E-3,-3.139421539E0,5.520520020E-1,3.187590860E0
4.339429792E0,5.508544922E-2,-2.801424408E0,7.954458618E-1,2.912687288E0
4.349414792E0,7.304809570E-2,-1.888622589E0,7.900570679E-1,2.048516897E0
4.359400792E0,2.897973633E-1,-7.677534485E-1,5.960604858E-1,1.014256364E0
4.369385792E0,4.058061218E-1,-1.624122620E-1,6.715036011E-1,8.012324492E-1
4.379370792E0,6.318360901E-1,-4.490661621E-4,7.300318909E-1,9.654862029E-1
4.389355792E0,7.396119690E-1,8.247848511E-2,7.095245361E-1,1.028228395E0
4.399340792E0,5.830375671E-1,1.315763855E-1,9.231303406E-1,1.099733957E0
4.409326792E0,6.920109558E-1,1.905537415E-1,1.145268402E0,1.351602606E0
4.419311792E0,8.843609619E-1,2.417472839E-1,1.237626343E0,1.540212656E0
4.429296792E0,6.671626282E-1,5.667214966E-1,1.415606232E0,1.664397858E0
4.439281792E0,8.481362915E-1,6.185137939E-1,1.456770630E0,1.795570982E0
4.449266792E0,1.200353851E0,5.304968262E-1,1.562600555E0,2.040587353E0
4.459252792E0,1.232836304E0,2.348616028E-1,2.046843567E0,2.400961039E0
4.469237792E0,8.675958252E-1,-3.641926575E-1,2.748733978E0,2.905322235E0
4.479222792E0,3.727249146E-2,-1.165326691E0,3.528312836E0,3.715961114E0
4.489207792E0,-7.213499451E-1,-2.043400726E0,4.989723816E0,5.439961032E0
4.499192792E0,-1.626367950E0,-3.337160339E0,6.571484528E0,7.547590393E0
4.509178792E0,-2.468816071E0,-4.933440857E0,5.451064453E0,7.755513855E0
4.519163792E0,-2.990930328E0,-5.590574341E0,-2.966980133E0,7.000225482E0
4.529148792E0,-1.864223328E0,-5.629044342E0,-9.828411713E0,1.147863867E1
4.539133792E0,2.617157593E0,-7.447013855E0,-1.788331146E0,8.093556543E0
4.549119792E0,5.139262848E0,-1.153426437E1,1.066397415E1,1.652790434E1
4.559104792E0,7.282356262E0,-2.630225418E1,2.143497574E1,3.470301821E1
4.569090458E0,6.945257263E0,-3.756109131E1,-9.027726746E-1,3.820846997E1
4.579075458E0,1.480241821E1,-4.418257187E1,-6.657705231E0,4.706948354E1
4.589060458E0,1.783136948E1,-5.629179062E1,1.645198792E1,6.129756386E1
4.599045458E0,9.627978516E-1,-4.135150909E1,1.842024490E1,4.527891017E1
4.609031458E0,-3.427422638E0,-3.666924591E1,2.157149185E1,4.268149578E1
4.619016458E0,7.528145142E0,-3.701487717E1,5.498216400E0,3.817072811E1
4.629001458E0,1.624796219E1,-2.687181976E1,8.869505768E0,3.263064672E1
4.638986458E0,1.409468994E1,-2.608580429E1,5.724545746E0,3.019768028E1
4.648972458E0,9.994566193E0,-2.830628677E1,4.026177521E0,3.028774224E1
4.658957458E0,6.534810791E0,-3.231944138E1,4.895868988E0,3.333496027E1
4.668942458E0,5.893993378E0,-3.592933456E1,3.453767853E0,3.657300579E1
4.678927458E0,4.181704102E0,-3.596466110E1,8.419990540E-1,3.621674281E1
4.688912458E0,2.739602966E0,-3.198593491E1,7.674540710E-1,3.211221640E1
4.698898458E0,2.071392517E0,-2.603760452E1,2.813998260E0,2.627101259E1
4.708883458E0,2.108215942E0,-2.001098694E1,3.925736389E0,2.050111165E1
4.718868458E0,2.160008240E0,-1.442640015E1,3.258873138E0,1.494680270E1
4.728853458E0,1.042432251E0,-9.185199280E0,3.316952362E0,9.821238404E0
4.738838458E0,-2.966830444E-1,-4.693938904E0,5.982758789E0,7.610156765E0
4.748824458E0,-1.352138214E0,-1.307980042E0,8.055797882E0,8.272543083E0
4.758809458E0,-2.263892212E0,-4.044589233E-1,6.358776855E0,6.761866463E0
4.768794458E0,-1.846560059E0,-3.956272888E-1,3.262315979E0,3.769484122E0
4.778779458E0,-1.040336609E-1,1.276246033E0,4.798571320E0,4.966478999E0
4.788764458E0,1.144969025E0,3.499123535E0,8.793164520E0,9.532815002E0
4.798750458E0,1.726360016E0,4.591701508E0,8.391399994E0,9.720063554E0
4.808735458E0,6.508465576E-1,3.135978699E-1,5.354365540E0,5.402885821E0
4.818720458E0,-4.412823486E-1,-4.008514252E0,2.559228058E0,4.776250084E0
4.828705458E0,-7.879614258E-1,-4.608466644E0,1.556762695E-2,4.675370613E0
4.838690458E0,-1.644031219E0,-3.500321045E0,-6.302643585E0,7.394484582E0
4.848676458E0,-1.029559021E0,-7.387138367E-1,-6.899452515E0,7.014851026E0
4.858661458E0,-1.205143890E0,1.380279694E0,-4.961732025E0,5.289265404E0
4.868646458E0,-1.559756470E0,1.883682861E0,-3.641776886E0,4.386757374E0
4.878631458E0,-1.319206696E0,1.931433563E0,-3.081192627E0,3.868396298E0
4.888617458E0,-9.092092896E-1,1.688339081E0,-2.564467163E0,3.202130887E0
4.898602458E0,-7.107220459E-1,1.633103943E0,-1.947150879E0,2.638854081E0
4.908587458E0,-2.661465454E-1,1.460213470E0,-1.550026703E0,2.146075521E0
4.918572458E0,9.334588623E-1,8.086184692E-1,-1.234482880E0,1.746183626E0
4.928557458E0,2.052980804E0,-5.044509888E-2,-9.726773071E-1,2.272306325E0
4.938543458E0,2.462678833E0,-4.929249573E-1,-6.002517700E-1,2.582259521E0
4.948528458E0,2.471959534E0,-5.670208740E-1,-2.290237427E-1,2.546477662E0
4.958513458E0,2.345622253E0,-3.957769775E-1,-5.022056580E-1,2.431212392E0
4.968498458E0,1.400787048E0,3.318598938E-1,-7.903564453E-1,1.642254138E0
4.978483458E0,7.878117371E-1,1.066382446E0,-4.623884583E-1,1.404144558E0
4.988469458E0,6.274951172E-1,1.461111603E0,-1.038839722E-1,1.593546083E0
4.998454458E0,5.132826233E-1,1.501078491E0,1.070274353E-1,1.590015899E0
5.008439458E0,1.785786438E-1,1.559157715E0,4.414320374E-1,1.630253157E0
5.018424458E0,-4.493655396E-1,1.604812775E0,9.292675781E-1,1.908112067E0
5.028410458E0,-6.143225098E-1,1.339414673E0,1.299447784E0,1.964685307E0
5.038395458E0,-3.601510620E-1,7.674540710E-1,1.247206421E0,1.508051191E0
5.048380458E0,-2.990780640E-1,3.905378723E-1,1.136436768E0,1.238327923E0
5.058365458E0,-4.447251892E-1,2.412982178E-1,1.070124664E0,1.183711165E0
5.068350458E0,-5.369334412E-1,1.308279419E-1,8.933422852E-1,1.050463664E0
5.078336458E0,-6.466552734E-1,-4.939727783E-3,1.051712952E0,1.234620418E0
5.088321458E0,-7.918533325E-1,-3.591032410E-1,1.148711243E0,1.440668025E0
5.098306458E0,-1.149908752E0,-9.145980835E-1,1.375938721E0,2.012954832E0
5.108291458E0,-1.781295776E0,-1.617536316E0,1.820813599E0,3.017416202E0
5.118276458E0,-2.397713928E0,-2.289189606E0,2.277064819E0,4.021746551E0
5.128262458E0,-3.117866364E0,-2.928959198E0,2.740650787E0,5.080458580E0
5.138247458E0,-4.112098846E0,-3.375929718E0,3.548071747E0,6.394925449E0
5.148232458E0,-5.017715607E0,-3.475921783E0,3.616778870E0,7.095110397E0
5.158217458E0,-5.564378815E0,-3.460803223E0,2.089504852E0,6.877899466E0
5.168202458E0,-4.730912018E0,-2.932102661E0,-8.002359009E-1,5.623089189E0
5.178188458E0,-2.312391357E0,-1.934127960E0,-3.182082825E0,4.383338438E0
5.188173458E0,5.433700562E-2,-1.037492523E0,-1.176703033E0,1.569704837E0
5.198158458E0,4.752916260E0,-4.221521301E0,1.111887817E1,1.280784552E1
5.208143458E0,6.108048248E0,-1.141271713E1,2.014660492E0,1.310027567E1
5.218129458E0,1.060664337E1,-2.686688004E1,3.282374268E0,2.907067435E1
5.228114458E0,9.300160217E0,-5.354290695E1,2.292497726E1,5.898211973E1
5.238099458E0,-2.826871490E0,-7.465874634E1,2.576232697E1,7.902921674E1
5.248084458E0,-1.088955505E1,-7.930882645E1,2.636557251E1,8.428295068E1
5.258069458E0,2.075883179E0,-4.258015411E1,-1.081785416E1,4.398186881E1
5.268055458E0,2.000814285E1,-1.535057831E1,8.191116486E0,2.651528661E1
5.278040458E0,2.411769699E1,-1.756462418E1,9.354796600E0,3.126805958E1
5.288025458E0,2.157044403E1,-2.476330444E1,3.299887848E0,3.300597768E1
5.298010458E0,1.807596085E1,-3.221256363E1,2.008223877E0,3.699219619E1
5.307995458E0,1.216026260E1,-3.685575806E1,5.439688110E-1,3.881384792E1
5.317981458E0,6.031856689E0,-3.704601242E1,1.588197327E-1,3.753419181E1
5.327966458E0,2.857557678E0,-3.661580704E1,8.168513489E-1,3.673622472E1
5.337951458E0,-7.634124756E-3,-3.772544952E1,3.547023926E0,3.789183261E1
5.347936458E0,4.647834778E-1,-3.489872772E1,3.244802399E0,3.505233178E1
5.357921458E0,3.848047943E0,-2.827664841E1,3.687731323E0,2.877456655E1
5.367907458E0,5.508544922E0,-2.022908340E1,4.521946564E0,2.144779437E1
5.377892458E0,5.540578308E0,-1.369292542E1,6.303691406E0,1.606022228E1
5.387877458E0,3.860322418E0,-7.451055450E0,8.485404510E0,1.193408590E1
5.397862458E0,1.106948090E0,-3.068319397E0,9.414073334E0,9.963166903E0
5.407848458E0,-1.265169067E0,-2.514471130E0,4.444407806E0,5.260796383E0
5.417833458E0,-3.101550293E-1,-1.599723358E0,2.530787201E0,3.010015751E0
5.427818458E0,2.931803284E0,2.654579773E0,1.058089691E1,1.129591270E1
5.437803458E0,4.907395020E0,5.665418701E0,1.495150818E1,1.672504385E1
5.447788458E0,1.316212921E0,1.438508606E-1,6.771169281E0,6.899408885E0
5.457774458E0,-3.989503784E0,-3.532653809E0,-2.816842346E0,6.027469135E0
5.467759458E0,-5.565127258E0,-2.984044647E0,-5.705535278E0,8.510481577E0
5.477744458E0,-5.008285217E0,-1.929188232E0,-4.210444336E0,6.821475615E0
5.487729458E0,-3.699107666E0,-2.656974792E-1,-2.063009949E0,4.243819356E0
5.497714458E0,-2.888243866E0,1.764830017E0,1.318757629E-1,3.387324731E0
5.507700458E0,-3.359463959E0,2.971321106E0,7.520361328E-1,4.547560395E0
5.517685458E0,-3.801045685E0,3.362607422E0,-1.213975525E-1,5.076397772E0
5.527670458E0,-3.386856995E0,3.011587372E0,-9.999206543E-1,4.641152886E0
5.537655458E0,-2.413580933E0,2.256407776E0,-2.115101624E0,3.923060520E0
5.547641458E0,-1.095721436E0,1.162482605E0,-3.047063599E0,3.440431346E0
5.557626458E0,-8.666976929E-2,-2.077679443E-1,-3.694018250E0,3.700871518E0
5.567610792E0,8.509803772E-1,-1.068029022E0,-3.894900513E0,4.127360367E0
5.577595792E0,1.855990448E0,-1.426683197E0,-3.289409637E0,4.037368109E0
5.587580792E0,2.976709900E0,-1.841620331E0,-1.617985382E0,3.856195530E0
5.597566792E0,3.486399994E0,-1.726958771E0,2.056723022E-1,3.896109933E0
5.607551792E0,2.982248383E0,-6.878196716E-1,3.824546814E-1,3.084343188E0
5.617536792E0,1.991309052E0,4.396357727E-1,-3.673361206E-1,2.072082811E0
5.627521792E0,1.497785339E0,1.159788208E0,-8.190966797E-1,2.063828719E0
5.637507792E0,8.348139954E-1,1.760189667E0,-2.092648315E-1,1.959329947E0
5.647492792E0,9.969268799E-2,2.238744507E0,5.297483826E-1,2.302726416E0
5.657477792E0,-2.179467773E-1,2.475252686E0,8.916957092E-1,2.639980661E0
5.667462792E0,-1.999841309E-1,2.364333344E0,7.247927856E-1,2.481005924E0
5.677447792E0,-4.610412598E-2,1.734742584E0,3.472778320E-1,1.769762503E0
5.687433792E0,6.735992432E-2,8.409512329E-1,-1.329235840E-1,8.540521148E-1
5.697418792E0,2.191442871E-1,2.152523804E-1,-5.557942200E-1,6.350315116E-1
5.707403792E0,3.456312561E-1,-2.248324585E-1,-8.556207275E-1,9.497880969E-1
5.717388792E0,2.977308655E-1,-4.957690430E-1,-9.684860229E-1,1.128005226E0
5.727374792E0,1.389111328E-1,-7.942483521E-1,-7.038363647E-1,1.070286119E0
5.737359792E0,-3.291654968E-1,-1.334025879E0,-1.106199646E-1,1.378481682E0
5.747344792E0,-7.735913086E-1,-1.731898499E0,2.797682190E-1,1.917338306E0
5.757329792E0,-8.069718933E-1,-1.750310211E0,2.348616028E-1,1.941635765E0
5.767314792E0,-6.941065979E-1,-1.547481995E0,3.592529297E-2,1.696400637E0
5.777300792E0,-6.650669861E-1,-1.383123779E0,3.158432007E-2,1.535038454E0
5.787285792E0,-7.318281555E-1,-1.243464203E0,2.444416809E-1,1.463395848E0
5.797270792E0,-7.285350037E-1,-1.114282837E0,5.923182678E-1,1.457130887E0
5.807255792E0,-7.237449646E-1,-1.115330658E0,1.155746613E0,1.761680869E0
5.817241792E0,-7.987390137E-1,-1.256636810E0,2.077829132E0,2.556265633E0
5.827226792E0,-9.217831421E-1,-1.547631683E0,3.351530457E0,3.804944729E0
5.837211792E0,-9.222322083E-1,-1.896107025E0,5.335205383E0,5.736736928E0
5.847196792E0,-1.016087036E0,-2.173929291E0,6.976242828E0,7.377422682E0
5.857181792E0,-1.246308289E0,-2.120789795E0,6.545289001E0,6.992270148E0
5.867167792E0,1.300794983E-1,-1.873504028E0,5.418582001E0,5.734803303E0
5.877152792E0,3.554059296E0,-1.626966705E0,6.788383484E0,7.833294866E0
5.887137792E0,9.964927826E0,-7.734416199E0,9.364676056E0,1.571044678E1
5.897122792E0,6.897805939E0,-1.994467484E1,-4.866080933E0,2.165752813E1
5.907108792E0,4.321962433E0,-3.756707886E1,-1.741029510E0,3.785493306E1
5.917093792E0,-5.689219208E0,-8.528185547E1,4.619588516E1,9.715668733E1
5.927078792E0,-1.567031342E1,-1.090837093E2,3.047303101E1,1.143390570E2
5.937063792E0,5.870791626E-1,-5.795423355E1,-1.679507446E1,6.034163053E1
5.947048792E0,1.604378677E1,-1.189980423E1,7.582482147E0,2.136591843E1
5.957034792E0,2.484129227E1,-1.102711899E1,1.356314529E1,3.037508955E1
5.967019792E0,2.436692871E1,-2.203253311E1,-3.665876770E0,3.305477851E1
5.977004792E0,2.607308075E1,-3.572246475E1,-2.487826538E-1,4.422625827E1
5.986989792E0,2.141626465E1,-4.078508698E1,3.641926575E-1,4.606747603E1
5.996974792E0,1.483026031E1,-3.908147964E1,-1.093326416E0,4.181499773E1
6.006960792E0,5.750591583E0,-3.739433807E1,-6.167175293E-1,3.783895036E1
6.016945792E0,-2.878364410E0,-3.731530243E1,2.503394165E0,3.750978218E1
6.026930792E0,-6.248306580E0,-3.385315201E1,2.583926697E0,3.452178896E1
6.036915792E0,-5.608536987E0,-2.612128052E1,2.621648254E0,2.684492545E1
6.046901792E0,-2.765349426E0,-1.680749863E1,5.126389618E0,1.778817130E1
6.056886792E0,-1.962568817E0,-8.583899689E0,7.424410858E0,1.151767715E1
6.066871792E0,-1.769620056E0,-4.556674347E0,7.402855682E0,8.871139076E0
6.076856792E0,9.813592529E-1,-3.019969940E0,9.142537994E0,9.678289384E0
6.086841792E0,1.113040421E1,2.027833099E0,2.658501617E1,2.889223234E1
6.096827792E0,1.185729263E1,-8.472381592E-1,2.249596939E1,2.544369941E1
6.106812792E0,-3.915258179E0,-1.013871643E1,6.786138153E0,1.281305930E1
6.116797792E0,-9.581724701E0,-8.132887573E0,-7.298522644E0,1.453346969E1
6.126782792E0,-8.730594635E0,-2.446961517E0,-9.416917419E0,1.307246102E1
6.136768792E0,-5.514532471E0,1.541943512E0,-4.445605316E0,7.249211322E0
6.146753792E0,-3.041525116E0,3.743116150E0,-1.331481171E0,5.003462366E0
6.156738792E0,-2.855162659E0,3.859274597E0,3.128494263E-1,4.810803362E0
6.166723792E0,-2.457739105E0,3.270698547E0,-2.393522644E-1,4.098199605E0
6.176709792E0,-1.389859772E0,2.665207672E0,-2.744842072E0,4.070528236E0
6.186694792E0,-1.100361786E0,2.133363647E0,-4.368515625E0,4.984572728E0
6.196679792E0,-1.026116180E0,1.732646942E0,-4.977149963E0,5.369078282E0
6.206664792E0,-5.179229736E-2,1.686393127E0,-4.940027161E0,5.220198518E0
6.216649792E0,1.864522705E0,1.689835968E0,-3.857478333E0,4.605662776E0
6.226635792E0,3.929478607E0,1.110091553E0,-1.247206421E0,4.269499881E0
6.236620792E0,5.522615662E0,2.544708252E-3,1.072669373E0,5.625825255E0
6.246605792E0,5.546416168E0,-9.773176575E-1,9.464817810E-1,5.710841433E0
6.256590792E0,3.758384399E0,-1.433568878E0,-2.242337036E-1,4.028753377E0
6.266576792E0,1.262624359E0,-1.138532410E0,-9.907896423E-1,1.967775504E0
6.276561792E0,-8.069718933E-1,-8.484356689E-1,-1.230441284E0,1.698538335E0
6.286546792E0,-1.742077332E0,-6.400689697E-1,-5.810916138E-1,1.944785124E0
6.296531792E0,-1.924098816E0,-7.873626709E-2,4.864883423E-2,1.926323535E0
6.306516792E0,-6.732998657E-1,4.559518433E-1,3.730242920E-1,8.946350736E-1
6.316502792E0,9.056167603E-2,8.991801453E-1,2.377056885E-1,9.344679476E-1
6.326487792E0,1.442999268E-1,1.546284485E0,-2.438429260E-1,1.572029755E0
6.336472792E0,3.784130859E-1,2.072440338E0,-7.608677673E-1,2.239894010E0
6.346457792E0,5.471122742E-1,1.939666443E0,-8.887019348E-1,2.202595941E0
6.356443792E0,3.613485718E-1,1.297651520E0,-1.029109955E0,1.695151780E0
6.366428792E0,1.149609375E-1,7.454498291E-1,-1.332079926E0,1.530799919E0
6.376413792E0,1.634600830E-1,2.041754150E-1,-1.465153198E0,1.488314716E0
6.386398792E0,1.936972046E-1,-1.779798889E-1,-1.408121796E0,1.432481218E0
6.396384792E0,2.624043274E-1,-3.197351074E-1,-1.174457703E0,1.245165638E0
6.406369792E0,6.333329773E-1,-3.722758484E-1,-1.097817078E0,1.320947502E0
6.416354792E0,1.302740936E0,-8.830137634E-1,-9.566606140E-1,1.841751010E0
6.426339792E0,1.417851562E0,-9.692344666E-1,-5.893244934E-1,1.815770322E0
6.436324792E0,9.702822876E-1,-7.018904114E-1,2.463876343E-1,1.222622073E0
6.446310792E0,4.884342957E-1,-7.845185852E-1,6.765930176E-1,1.145345181E0
6.456295792E0,1.228944397E-1,-7.186555481E-1,6.276448059E-1,9.620326619E-1
6.466280792E0,-1.305285645E-1,-7.391629028E-1,8.994795227E-1,1.171521624E0
6.476265792E0,-4.682263184E-1,-7.322772217E-1,1.202299805E0,1.483573603E0
6.486251792E0,-7.927514648E-1,-7.229965210E-1,1.766925659E0,2.067173224E0
6.496236792E0,-1.039139099E0,-9.204359436E-1,2.564766541E0,2.916340138E0
6.506221792E0,-1.462309113E0,-1.328786774E0,3.841311951E0,4.319687458E0
6.516206792E0,-2.111359406E0,-2.103725281E0,5.439987488E0,6.202980128E0
6.526192792E0,-2.179467773E0,-3.171005859E0,5.448968811E0,6.670578614E0
6.536177792E0,-4.846920776E-1,-3.806584167E0,2.296823730E0,4.472181647E0
6.546162792E0,3.155288544E0,-3.421884155E0,3.338806915E0,5.728243063E0
6.556147792E0,9.896071014E0,-7.627688141E0,9.230255585E0,1.553420310E1
6.566133292E0,3.583248596E0,-9.723330231E0,-2.007819717E1,2.259461934E1
6.576119292E0,5.836961975E0,-2.196981354E1,1.700179459E1,2.838668440E1
6.586104292E0,7.760312347E0,-7.139643036E1,2.225946121E1,7.518747455E1
6.596089292E0,7.582781525E0,-9.915994583E1,1.530881516E1,1.006208391E2
6.606074292E0,-1.027672943E1,-9.603294846E1,3.672028976E1,1.033262698E2
6.616060292E0,-7.807314606E0,-4.128489761E1,-8.574319611E0,4.288258258E1
6.626045292E0,1.451696182E1,-1.968361771E1,1.121303238E1,2.690574440E1
6.636030292E0,1.652892792E1,-2.164453995E1,5.947881317E0,2.787595487E1
6.646015292E0,1.364442627E1,-2.838517273E1,-3.211870880E0,3.165761383E1
6.656000292E0,1.221564743E1,-3.377456543E1,-9.216334534E-1,3.592760388E1
6.665986292E0,1.137185211E1,-3.724524811E1,1.715283051E0,3.898037613E1
6.675971292E0,6.882088623E0,-3.858002243E1,1.284329224E-1,3.918925579E1
6.685956292E0,4.438270569E-1,-3.739029648E1,-9.665400696E-1,3.740542010E1
6.695941292E0,-5.005590820E0,-3.272360092E1,1.164129181E0,3.312469160E1
6.705927292E0,-6.286776581E0,-2.539978088E1,4.989274750E0,2.663766678E1
6.715912292E0,-5.046755219E0,-1.607297607E1,8.827443237E0,1.901930735E1
6.725897292E0,-3.586242371E0,-7.595654755E0,1.418570068E1,1.648603073E1
6.735882292E0,-3.273692322E-1,-3.323538666E0,1.689895844E1,1.722579101E1
6.745868292E0,7.781268768E0,-1.128353577E0,2.499053192E1,2.619824443E1
6.755853292E0,1.189636139E1,-4.737198944E0,2.274505142E1,2.610175918E1
6.765838292E0,-1.056952057E0,-1.102517303E1,1.022014709E1,1.507060034E1
6.775823292E0,-6.668782196E0,-5.799090729E0,-3.015329590E0,9.337789984E0
6.785808292E0,-8.049510956E0,1.255888367E-1,-8.642577667E0,1.181120434E1
6.795794292E0,-7.017706604E0,2.371668091E0,-6.561754761E0,9.895940635E0
6.805779292E0,-4.986580353E0,2.747835846E0,-5.524711304E0,7.933411652E0
6.815764292E0,-3.526965637E0,2.920726318E0,-4.747228088E0,6.595930818E0
6.825749292E0,-1.685794373E0,2.776276703E0,-4.909939728E0,5.887030077E0
6.835735292E0,-3.861968994E-1,2.090552673E0,-5.176235962E0,5.595799966E0
6.845720292E0,-2.652484131E-1,1.561852112E0,-4.525838470E0,4.795096725E0
6.855705292E0,-1.772314453E-1,1.404978333E0,-4.378395081E0,4.601708224E0
6.865690292E0,7.140151978E-2,1.354982300E0,-4.711302795E0,4.902800143E0
6.875676292E0,7.887098694E-1,1.159488831E0,-5.015320587E0,5.207678773E0
6.885661292E0,1.626068573E0,5.819897461E-1,-4.272864532E0,4.608707235E0
6.895646292E0,2.676584015E0,8.577163696E-2,-1.543290710E0,3.090825938E0
6.905631292E0,4.497846680E0,-1.251397705E-1,1.430575104E0,4.721528338E0
6.915617292E0,6.466403046E0,-2.157014465E-1,1.359323273E0,6.611252168E0
6.925602292E0,6.756948853E0,-4.017645264E-1,4.468208313E-1,6.783614183E0
6.935587292E0,5.675298157E0,-5.273533630E-1,-5.028044128E-1,5.721881073E0
6.945572292E0,4.304448853E0,-2.203417969E-1,-1.255738678E0,4.489288369E0
6.955557292E0,2.320324860E0,5.352868652E-1,-8.943901062E-1,2.543692816E0
6.965543292E0,4.730163574E-2,1.438508606E0,-3.694317627E-1,1.485942220E0
6.975528292E0,-1.063238983E0,1.296004944E0,-4.569996643E-1,1.737513926E0
6.985513292E0,-2.039059753E0,1.391805725E0,-2.065704346E-1,2.477409776E0
6.995498292E0,-2.370769958E0,1.591340790E0,7.888595581E-2,2.856420610E0
7.005484292E0,-2.105671234E0,1.617985382E0,8.038284302E-2,2.656725323E0
7.015469292E0,-1.573228455E0,1.563498688E0,-8.247848511E-2,2.219544687E0
7.025454292E0,-9.183403015E-1,1.295555878E0,-2.903961182E-1,1.614355552E0
7.035439292E0,-6.177653503E-1,7.508386230E-1,-5.746549988E-1,1.129433944E0
7.045425292E0,-3.653901672E-1,2.477348328E-1,-6.182144165E-1,7.596522800E-1
7.055410292E0,-2.395019531E-3,-2.044747925E-1,-4.022135925E-1,4.512110935E-1
7.065395292E0,2.374063110E-1,-4.969665527E-1,-2.896476746E-1,6.222807135E-1
7.075380292E0,4.243675232E-1,-5.486091614E-1,-2.278262329E-1,7.300442446E-1
7.085366292E0,-3.790118408E-1,-5.655239868E-1,-1.182540894E-1,6.909785704E-1
7.095351292E0,-9.235794067E-1,-6.337820435E-1,-1.601669312E-2,1.120238873E0
7.105336292E0,-1.031804352E0,-6.113287354E-1,-3.951782227E-2,1.199960292E0
7.115321292E0,-9.490264893E-1,-5.456153870E-1,1.272354126E-2,1.094764503E0
7.125307292E0,-7.973918152E-1,-5.490582275E-1,2.176473999E-1,9.923049102E-1
7.135292292E0,-7.542814636E-1,-6.718029785E-1,4.819976807E-1,1.119187890E0
7.145277292E0,-6.965016174E-1,-7.119195557E-1,5.782475281E-1,1.151657137E0
7.155262292E0,-4.926255798E-1,-7.247927856E-1,6.140231323E-1,1.070060256E0
7.165248292E0,-3.129991150E-1,-7.048841858E-1,9.241781616E-1,1.203717340E0
7.175233292E0,-3.948788452E-1,-8.578660583E-1,1.973346405E0,2.187683595E0
7.185218292E0,-5.972579956E-1,-1.161135406E0,3.828887787E0,4.045409031E0
7.195203292E0,-8.951385498E-1,-2.064806213E0,6.627468109E0,6.999145038E0
7.205188292E0,5.777984619E-2,-4.395160217E0,1.140164017E1,1.221958143E1
7.215174292E0,2.260449371E0,-7.384893036E0,2.002640488E1,2.146399704E1
7.225159292E0,1.755699005E0,-9.866432648E0,1.352796844E1,1.683552501E1
7.235144292E0,3.310964813E0,-1.164563278E1,-1.146615601E-1,1.210769995E1
7.245129292E0,8.579558716E0,-2.042727127E1,6.227050781E-1,2.216461145E1
7.255115292E0,6.721023560E-1,-2.525128967E1,-1.125659180E-1,2.526048342E1
7.265100292E0,-7.058122559E0,-4.239858170E1,2.690385315E1,5.070773253E1
7.275085292E0,-6.775061188E0,-5.046291183E1,2.128872986E0,5.096017097E1
7.285070292E0,-2.113904114E0,-4.546076385E1,1.316437454E1,4.737563085E1
7.295056292E0,-6.286926270E-1,-5.492498291E1,3.008878006E1,6.262973485E1
7.305041292E0,5.958359528E0,-3.887341232E1,-5.508544922E-1,3.933125570E1
7.315026292E0,1.015757721E1,-2.809043564E1,1.485630615E1,3.336103688E1
7.325011292E0,3.410358124E0,-2.674578186E1,7.435188446E0,2.796872212E1
7.334997292E0,-2.073188782E0,-2.983520737E1,6.899901581E0,3.069277361E1
7.344982292E0,-4.524640961E0,-3.602543472E1,1.738933868E0,3.635007859E1
7.354967292E0,-4.513414307E0,-3.900768311E1,-3.195854187E-1,3.926922949E1
7.364952292E0,-3.963008881E0,-3.962544846E1,-3.113525391E-2,3.982314119E1
7.374937292E0,-4.353397064E0,-4.146212906E1,-1.103205872E-1,4.169019528E1
7.384923292E0,-2.097438354E0,-4.293746109E1,4.733157349E-1,4.299126470E1
7.394908292E0,1.387015686E0,-4.043421661E1,6.004014587E-1,4.046245380E1
7.404893292E0,3.335064697E0,-3.173954727E1,1.561103668E0,3.195244219E1
7.414878292E0,3.767066345E0,-2.095627121E1,3.841311951E0,2.163589077E1
7.424864292E0,4.187691650E0,-1.061577438E1,1.063373703E1,1.559832652E1
7.434849292E0,3.404071198E0,-3.003653870E0,1.760384262E1,1.817979407E1
7.444834292E0,4.818479919E-1,-3.276087341E0,7.276967468E0,7.994947235E0
7.454819292E0,4.011657715E0,-2.705773315E0,1.032956955E1,1.140677930E1
7.464805292E0,1.349862946E1,-1.679357758E0,2.349603973E1,2.714953264E1
7.474790292E0,7.523205414E0,-8.883875885E0,1.457983109E1,1.865725984E1
7.484775292E0,-5.261708221E0,-8.861123199E0,5.432053986E0,1.164956172E1
7.494760292E0,-8.068072357E0,-5.192701721E0,-2.052531738E0,9.811769935E0
7.504746292E0,-8.394393768E0,-1.153351593E0,-7.120991821E0,1.106817922E1
7.514731292E0,-6.461163940E0,3.742517395E0,-1.095616653E1,1.325860706E1
7.524716292E0,-3.997886353E0,3.952380981E0,-1.054302567E1,1.194821329E1
7.534701292E0,-1.464255066E0,2.261347504E0,-6.974596252E0,7.476812711E0
7.544687292E0,-8.223898315E-1,1.596579895E0,-3.288810883E0,3.747221560E0
7.554672292E0,-6.014492798E-1,1.362766113E0,-1.917362823E0,2.427993598E0
7.564657292E0,-4.966671753E-1,1.175655212E0,-2.233206024E0,2.572168853E0
7.574641583E0,-5.508544922E-1,1.166524200E0,-3.401676178E0,3.638079191E0
7.584627583E0,-4.331991577E-1,1.233584747E0,-3.493435364E0,3.730078214E0
7.594612583E0,-1.287322998E-1,1.303639069E0,-2.682721252E0,2.985471511E0
7.604597583E0,7.430548096E-1,1.218765564E0,-2.050286407E0,2.498238240E0
7.614582583E0,1.959724731E0,8.672964478E-1,-1.649719391E0,2.704495927E0
7.624568583E0,3.190615082E0,7.390132141E-1,-5.596861267E-1,3.322561315E0
7.634553583E0,4.124672699E0,6.936575317E-1,7.559280396E-1,4.250354438E0
7.644538583E0,4.729564819E0,6.749464417E-1,9.056167603E-1,4.862558770E0
7.654523583E0,5.201383667E0,4.903802490E-1,1.802252197E-1,5.227556405E0
7.664508583E0,4.548441467E0,8.098159790E-2,-5.553451538E-1,4.582934217E0
7.674494583E0,2.418221283E0,-2.794688416E-1,-1.173709259E0,2.702497073E0
7.684479583E0,2.667453003E-1,-7.170089722E-2,-1.344953156E0,1.373023330E0
7.694464583E0,1.248403931E-1,4.185296631E-1,-8.192463684E-1,9.283947516E-1
7.704449583E0,-2.791694641E-1,1.040785675E0,-3.522175598E-1,1.133678800E0
7.714435583E0,-6.557862854E-1,1.593137054E0,2.104623413E-1,1.735636979E0
7.724420583E0,-5.065466309E-1,1.698368225E0,5.710624695E-1,1.862030199E0
7.734405583E0,-3.728746033E-1,1.695075073E0,5.897735596E-1,1.833070600E0
7.744390583E0,-1.947450256E-1,1.670376434E0,5.571414185E-1,1.771578284E0
7.754376583E0,-4.269122314E-1,1.609153748E0,1.924996948E-1,1.675913473E0
7.764361583E0,-6.430627441E-1,1.452429657E0,-2.299218750E-1,1.604975286E0
7.774346583E0,-6.409671021E-1,1.100212097E0,-6.899153137E-1,1.448201859E0
7.784331583E0,-5.695655823E-1,9.051676941E-1,-8.467890930E-1,1.364106035E0
7.794317583E0,-6.640191650E-1,4.299060059E-1,-8.406518555E-1,1.154311989E0
7.804302583E0,-7.092251587E-1,-4.520599365E-1,-5.426216125E-1,1.000897960E0
7.814287583E0,-7.887098694E-1,-1.128503265E0,7.185058594E-3,1.376820432E0
7.824272583E0,-6.469546509E-1,-1.461560669E0,3.637435913E-1,1.639213015E0
7.834258583E0,-6.779402161E-1,-1.553319855E0,7.195536804E-1,1.841239530E0
7.844243583E0,-8.490344238E-1,-1.600771179E0,1.007405090E0,2.073208344E0
7.854228583E0,-9.967771912E-1,-1.610650635E0,1.179846497E0,2.231546099E0
7.864213583E0,-1.036744080E0,-1.551074524E0,1.306183777E0,2.277451761E0
7.874199583E0,-7.424560547E-1,-1.629212036E0,8.222401428E-1,1.970190779E0
7.884184583E0,-5.307962036E-1,-1.681902466E0,3.327580261E-1,1.794789241E0
7.894169583E0,-7.556286621E-1,-1.478325806E0,-2.514770508E-2,1.660437975E0
7.904154583E0,-1.052311707E0,-1.194366302E0,-3.059637451E-1,1.620951759E0
7.914140583E0,-1.268312531E0,-9.412426758E-1,1.639091492E-1,1.587898189E0
7.924125583E0,-9.780661011E-1,-1.013392639E0,1.033001862E0,1.746616954E0
7.934110583E0,-6.755451965E-1,-1.452729034E0,1.352138214E0,2.096440009E0
7.944095583E0,-6.191125488E-1,-1.968107300E0,5.757028198E-1,2.142003835E0
7.954081583E0,-2.953358459E-1,-2.163900146E0,-7.264393616E-1,2.301608405E0
7.964066583E0,4.146377563E-1,-2.505190430E0,6.105802917E-1,2.611649259E0
7.974051583E0,1.017284546E0,-3.763773193E0,8.459208984E0,9.314455064E0
7.984036583E0,2.028431854E0,-6.061495056E0,1.194920151E1,1.355137169E1
7.994022583E0,4.224066010E0,-7.229366455E0,-1.776745239E1,1.964150803E1
8.004007583E0,3.430266724E0,-8.280031586E0,-2.092648315E-1,8.964900704E0
8.013992583E0,4.300856323E0,-3.000734940E1,3.296729416E1,4.478594497E1
8.023977583E0,6.772516479E0,-7.973573868E1,5.950126648E-1,8.002505259E1
8.033963583E0,-1.601474716E1,-1.460057794E2,7.756375534E1,1.661032688E2
8.043948583E0,-2.862347717E1,-8.614436188E1,-9.966574402E0,9.132079245E1
8.053933583E0,-3.007695465E0,-1.989512787E1,-1.348695374E-1,2.012164344E1
8.063918583E0,1.342153976E1,-7.606582031E0,1.762105682E1,2.342006540E1
8.073904583E0,8.587791595E0,-1.274060577E1,3.569177856E0,1.577378301E1
8.083889583E0,3.206931152E0,-2.222817627E1,6.766828308E0,2.345562178E1
8.093874583E0,2.225871277E-1,-3.491309784E1,7.331753540E-1,3.492150472E1
8.103859583E0,-4.289330292E0,-4.162783447E1,4.475692749E-2,4.184826114E1
8.113844583E0,-1.072070618E1,-3.996329590E1,-1.622625732E-1,4.137662250E1
8.123830583E0,-1.350117416E1,-3.744927383E1,9.933343506E-1,3.982105634E1
8.133815583E0,-1.309851151E1,-3.647255493E1,2.213896179E0,3.881648623E1
8.143800583E0,-1.097757202E1,-3.180705688E1,4.792583771E0,3.398771564E1
8.153785583E0,-8.342152405E0,-2.366024826E1,9.859996033E0,2.695585978E1
8.163771583E0,-7.128176880E0,-1.322365128E1,1.259076736E1,1.960110409E1
8.173756583E0,-2.844235382E0,-5.963748322E0,1.993734009E1,2.100365441E1
8.183741583E0,1.783496201E1,-1.679028442E1,5.424285141E1,5.951711056E1
8.193726583E0,3.273392944E0,-3.658122894E1,4.767810287E1,6.018390903E1
8.203712583E0,-2.463382370E1,-2.545890793E1,-1.478924561E0,3.545657176E1
8.213697583E0,-2.319636292E1,-9.071585541E0,-2.728226624E1,3.694166980E1
8.223682583E0,-1.076770844E1,9.672885132E-1,-1.495779510E1,1.845575321E1
8.233667583E0,-5.041366425E0,5.101990356E0,-4.260739746E0,8.342636526E0
8.243653583E0,-2.067500610E0,6.677015076E0,-9.666897583E-1,7.056314774E0
8.253638583E0,3.179388428E-1,4.228706360E0,-7.118746490E0,8.286108506E0
8.263623583E0,1.182241516E0,2.000440063E0,-8.456813965E0,8.770242750E0
8.273608583E0,1.298849030E0,1.307980042E0,-5.639971619E0,5.933557150E0
8.283594583E0,1.961820374E0,1.237326965E0,-6.110443268E0,6.535842266E0
8.293579583E0,2.784210205E0,1.356928253E0,-6.849306793E0,7.517052900E0
8.303564583E0,3.543730774E0,1.561403046E0,-6.761738892E0,7.792119102E0
8.313549583E0,4.562811584E0,1.854942627E0,-5.867947540E0,7.661127204E0
8.323535583E0,4.591701508E0,1.785636749E0,-3.979324951E0,6.333028375E0
8.333520583E0,4.869823151E0,1.490600281E0,-2.029629364E0,5.482377410E0
8.343505583E0,7.993976440E0,1.322350159E0,1.589694214E-1,8.104168097E0
8.353490583E0,1.237192245E1,4.918771362E-1,1.163829803E0,1.243627389E1
8.363476583E0,1.414363815E1,-1.013392639E-1,-3.194357300E-1,1.414760789E1
8.373461583E0,1.259091705E1,4.475692749E-1,-1.992805939E0,1.275550023E1
8.383446583E0,7.807314606E0,1.823507996E0,-2.868634644E0,8.515186873E0
8.393431583E0,2.460882568E0,2.008223877E0,-3.144211578E0,4.469336931E0
8.403417583E0,-7.662565613E-1,1.619482269E0,-2.696791992E0,3.237678024E0
8.413402583E0,-2.954256592E0,1.559307404E0,-8.405021667E-1,3.444635755E0
8.423387583E0,-4.697232056E0,1.763782196E0,1.201401672E0,5.159290901E0
8.433372583E0,-5.360203400E0,1.936073914E0,2.092348938E0,6.071086127E0
8.443358583E0,-4.342469788E0,1.890568542E0,1.607207794E0,5.001440809E0
8.453343583E0,-2.808609467E0,1.491199036E0,5.415737915E-1,3.225719125E0
8.463328583E0,-1.313967590E0,1.103355560E0,2.829116821E-2,1.716014193E0
8.473313583E0,-3.793112183E-1,5.671705627E-1,1.725910950E-1,7.038090178E-1
8.483299583E0,-1.830693054E-1,-1.496887207E-3,-5.972579956E-2,1.925714994E-1
8.493284583E0,-2.049238586E-1,-4.330494690E-1,-3.475772095E-1,5.918914993E-1
8.503269583E0,-3.511697388E-1,-6.505471802E-1,-6.156697083E-1,9.620712077E-1
8.513254583E0,-2.389031982E-1,-8.146060181E-1,-9.623487854E-1,1.283266491E0
8.523240583E0,1.317260742E-2,-8.313711548E-1,-1.165177002E0,1.431428992E0
8.533225583E0,3.252735901E-1,-8.310717773E-1,-1.163829803E0,1.466622998E0
8.543210583E0,6.222560120E-1,-8.683442688E-1,-1.048270111E0,1.496694538E0
8.553195583E0,8.702902222E-1,-9.744735718E-1,-9.854008484E-1,1.636465290E0
8.563181583E0,8.270301819E-1,-9.855505371E-1,-1.095871124E0,1.690036184E0
8.573166917E0,9.009764099E-1,-8.583151245E-1,-1.500030670E0,1.948988290E0
8.583151917E0,1.078656921E0,-6.447093201E-1,-1.371448059E0,1.860113072E0
8.593136917E0,5.519023132E-1,-3.463796997E-1,-1.030756531E0,1.219440070E0
8.603122917E0,2.885998535E-1,5.224136353E-2,-1.625619507E0,1.651864951E0
8.613107917E0,2.616558838E-1,4.802014160E-1,-1.987417145E0,2.061282152E0
8.623092917E0,4.445755005E-2,1.004710693E0,-1.513652344E0,1.817295647E0
8.633077917E0,-2.477348328E-1,1.390009460E0,-1.205742645E0,1.856694421E0
8.643063917E0,-4.725672913E-1,1.637295227E0,-9.701325989E-1,1.960921407E0
8.653048917E0,-7.014413452E-1,1.727407837E0,-6.417155457E-1,1.971739495E0
8.663033917E0,-1.059347076E0,1.754651184E0,-2.773731995E-1,2.068321275E0
8.673018917E0,-1.289568329E0,1.556912384E0,6.271957397E-2,2.022596448E0
8.683004917E0,-8.090675354E-1,7.059320068E-1,1.101110229E0,1.537977247E0
8.692989917E0,3.656895447E-1,-8.678952026E-1,3.566333771E0,3.688591532E0
8.702974917E0,7.044351196E-1,-2.889291687E0,7.225175171E0,7.813283019E0
8.712959917E0,4.595443726E-2,-5.126838684E0,1.071217392E1,1.187591078E1
8.722945917E0,-1.518891449E0,-7.251370697E0,1.248359024E1,1.451652278E1
8.732930917E0,-4.749174042E0,-8.200247498E0,1.364098343E1,1.660948952E1
8.742915917E0,-7.453749847E0,-6.800957336E0,1.055350388E1,1.460095379E1
8.752901917E0,-4.137545929E0,-4.527485046E0,7.779322815E-1,6.182441734E0
8.762886917E0,2.230212250E0,-3.770958252E0,-4.862338715E0,6.544945423E0
8.772871917E0,5.619913330E0,-1.010847931E1,1.689791061E1,2.047691781E1
8.782856917E0,6.070775757E0,-1.537901917E1,-8.252339172E0,1.847889744E1
8.792842917E0,-3.409909058E0,-3.552742035E1,4.048615860E1,5.397178999E1
8.802827917E0,-1.444481186E1,-7.400221161E1,5.026008362E1,9.061487691E1
8.812812917E0,-1.485406082E1,-8.460077179E1,8.011340332E-1,8.589863518E1
8.822797917E0,-9.494605865E0,-7.054724625E1,-1.397793274E0,7.119701763E1
8.832782917E0,-7.607180786E0,-3.913955887E1,1.332229614E1,4.203876595E1
8.842768917E0,5.786816254E0,-2.077335159E1,1.599199448E1,2.684703459E1
8.852753917E0,5.293142853E0,-2.771890823E1,1.473056763E1,3.183307804E1
8.862738917E0,1.539249115E0,-3.649515793E1,6.803352356E-1,3.653393896E1
8.872723917E0,-2.360291748E0,-4.025039886E1,4.385879517E-1,4.032192884E1
8.882709917E0,-9.190288696E0,-3.925481918E1,2.317630463E0,4.038283851E1
8.892694917E0,-1.307680664E1,-4.068569366E1,5.857020264E0,4.313505798E1
8.902679917E0,-1.457324478E1,-4.214949966E1,3.308869171E0,4.472033543E1
8.912665917E0,-1.507859390E1,-4.150404190E1,1.151555328E0,4.417324493E1
8.922650917E0,-1.499117569E1,-3.688839020E1,1.168619843E0,3.983534049E1
8.932635917E0,-1.203676941E1,-2.864218826E1,6.651867371E0,3.177272582E1
8.942620917E0,-7.641459503E0,-1.655961411E1,1.595861389E1,2.423406858E1
8.952606917E0,-5.392985229E0,-8.288563843E0,1.511930923E1,1.806593734E1
8.962591917E0,2.039359131E0,-9.015901337E0,1.428195053E1,1.701233592E1
8.972576917E0,1.794363602E1,-1.702125412E1,3.810326385E1,4.542637870E1
8.982561917E0,4.832251282E0,-2.389525955E1,2.481853958E1,3.478927979E1
8.992547917E0,-1.168679718E1,-1.432895279E1,-8.189020844E0,2.022276388E1
9.002532917E0,-1.054407349E1,-3.420237579E0,-1.566193085E1,1.918779791E1
9.012517917E0,-3.782783661E0,2.942281494E0,-5.699697418E0,7.446678674E0
9.022502917E0,1.083746338E-1,6.782695313E0,1.592687988E-1,6.785430518E0
9.032488917E0,-8.812174988E-1,6.151607666E0,-7.909552002E-1,6.264537596E0
9.042473917E0,-1.497336273E0,3.984863434E0,-5.025200043E0,6.585877920E0
9.052458917E0,-1.199306030E0,2.512076111E0,-8.897347870E0,9.322642354E0
9.062443917E0,-2.743794250E-1,1.709744568E0,-9.576934662E0,9.732224210E0
9.072429917E0,8.039781189E-1,1.445843353E0,-8.711434479E0,8.867126620E0
9.082414917E0,1.315165100E0,1.493594055E0,-7.867489471E0,8.115286380E0
9.092399917E0,1.776805115E0,1.497785339E0,-7.474855957E0,7.827762702E0
9.102384917E0,2.466121674E0,1.267414398E0,-6.410120087E0,6.984105876E0
9.112370917E0,3.920197906E0,8.910969543E-1,-3.567381592E0,5.374775979E0
9.122355917E0,6.500532074E0,1.381626892E-1,5.828878784E-1,6.528075095E0
9.132340917E0,9.019493866E0,-1.091380463E0,3.112028503E-1,9.090612088E0
9.142325917E0,1.041788589E1,-2.656376038E0,-2.125579834E0,1.095932342E1
9.152311917E0,1.143921204E1,-2.748584290E0,-1.411265259E0,1.184913318E1
9.162296917E0,7.353907471E0,-4.784051514E-1,-3.543132019E-1,7.377964789E0
9.172281917E0,7.975415039E-1,9.900411987E-1,-1.651665344E0,2.084287033E0
9.182266917E0,-1.312021637E0,3.213816833E-1,-1.768721924E0,2.225548069E0
9.192252917E0,-2.444267120E0,-2.785707092E-1,1.244512024E0,2.756964558E0
9.202237917E0,-4.530329132E0,-2.719844055E-1,3.738026733E0,5.879685487E0
9.212222917E0,-6.440656586E0,-1.425036621E-1,4.145030365E0,7.660524869E0
9.222208917E0,-6.385720825E0,4.333488464E-1,2.049238586E0,6.720461328E0
9.232193917E0,-4.980892181E0,1.175655212E0,-5.426216125E-1,5.146444434E0
9.242178917E0,-2.658920746E0,1.411864014E0,-2.115700378E0,3.679593404E0
9.252163917E0,-7.048841858E-1,1.324745178E0,-2.668500824E0,3.061487898E0
9.262149917E0,1.993853760E-1,1.273551636E0,-2.675536194E0,2.969879159E0
9.272134917E0,8.655001831E-1,1.351689148E0,-2.404000854E0,2.890566420E0
9.282119917E0,1.769919434E0,1.568887482E0,-2.134112091E0,3.185664318E0
9.292104917E0,2.198627930E0,1.629212036E0,-1.787133636E0,3.268354826E0
9.302090917E0,2.415526886E0,1.607656860E0,-1.436862030E0,3.237885608E0
9.312075917E0,2.232607269E0,1.488354950E0,-1.284478912E0,2.974831382E0
9.322060917E0,1.845212860E0,1.228195953E0,-1.241667938E0,2.540672169E0
9.332045917E0,1.444795532E0,1.005159760E0,-1.110839996E0,2.081284644E0
9.342031917E0,1.075513458E0,7.098239136E-1,-9.270222473E-1,1.587434860E0
9.352016917E0,6.532415771E-1,6.004014587E-1,-7.268884277E-1,1.146984418E0
9.362001917E0,1.083746338E-1,6.135740662E-1,-4.549040222E-1,7.714634569E-1
9.371986917E0,-2.835104370E-1,7.123686218E-1,-2.537223816E-1,8.076027911E-1
9.381972917E0,-4.929249573E-1,6.668632507E-1,-1.422042847E-1,8.413701131E-1
9.391957917E0,-6.134243774E-1,5.340893555E-1,-2.469863892E-1,8.500254013E-1
9.401942917E0,-4.968168640E-1,2.143542480E-1,-3.089575195E-1,6.230806440E-1
9.411928917E0,-1.022373962E-1,-1.857637024E-1,-4.601431274E-1,5.066481383E-1
9.421913917E0,4.147874451E-1,-4.625381470E-1,-5.571414185E-1,8.345038779E-1
9.431898917E0,9.583071899E-1,-5.701643372E-1,-4.769082642E-1,1.212799049E0
9.441883917E0,1.455722809E0,-6.110293579E-1,-5.041516113E-1,1.657303418E0
9.451869917E0,1.871408386E0,-7.093748474E-1,-5.510041809E-1,2.075810114E0
9.461854917E0,2.122436371E0,-7.506889343E-1,-2.703378296E-1,2.267455086E0
9.471839917E0,2.076931000E0,-6.583309937E-1,4.529580688E-1,2.225356845E0
9.481824917E0,1.732946320E0,-5.101391602E-1,1.049317932E0,2.089117764E0
9.491810917E0,1.495540009E0,-6.535409546E-1,1.974094849E0,2.561407068E0
9.501795917E0,9.768685913E-1,-1.524729309E0,3.777394867E0,4.189007483E0
9.511780917E0,-4.538562012E-1,-3.575165405E0,5.933810577E0,6.942470821E0
9.521765917E0,-1.676513672E0,-6.967261505E0,1.197135544E1,1.395230382E1
9.531751917E0,-3.611090698E0,-1.093386292E1,2.063219513E1,2.362788205E1
9.541736917E0,-7.901319122E0,-1.247251328E1,1.484657639E1,2.093836817E1
9.551721917E0,-4.762196960E0,-9.329948273E0,-1.671813446E1,1.972872207E1
9.561706917E0,6.363267517E-1,-5.691165161E0,-1.513637375E1,1.618345090E1
9.571693167E0,2.339035950E0,-1.136781052E1,2.007580215E1,2.318913619E1
9.581678167E0,7.926017761E0,-1.703682175E1,-1.910147827E1,2.679443086E1
9.591663167E0,7.446564789E0,-3.428964432E1,2.614343445E1,4.375740165E1
9.601649167E0,-4.484374695E0,-6.690531967E1,1.365595230E1,6.843183799E1
9.611634167E0,-3.812616623E1,-1.056248520E2,6.415987885E1,1.293317593E2
9.621619167E0,-3.209894989E1,-7.980998428E1,-8.239615631E0,8.641682383E1
9.631604167E0,-3.313060455E0,-2.717853195E1,9.342971191E0,2.892991668E1
9.641590167E0,1.282996994E1,-1.650437897E1,1.448702408E1,2.543376733E1
9.651575167E0,1.334953949E1,-2.486703873E1,1.474134521E1,3.184159353E1
9.661560167E0,5.703739014E0,-3.400703201E1,1.189935516E1,3.647746590E1
9.671545167E0,2.526446228E0,-4.126663559E1,8.712631989E0,4.225195971E1
9.681531167E0,-5.008434906E0,-4.331632324E1,5.623356171E0,4.396601431E1
9.691516167E0,-1.218511093E1,-4.037000015E1,3.883374481E0,4.234730733E1
9.701501167E0,-1.340731934E1,-3.923266525E1,4.818030853E0,4.173932984E1
9.711486167E0,-1.410771286E1,-3.771467194E1,1.042132874E0,4.028039327E1
9.721472167E0,-1.356718689E1,-3.301070389E1,-9.660910034E-1,3.570305958E1
9.731457167E0,-1.000699036E1,-2.388448196E1,1.215173035E0,2.592460183E1
9.741442167E0,-7.222929840E0,-1.283820282E1,4.690945129E0,1.545946743E1
9.751428167E0,-7.520061951E0,-5.273982697E0,1.051189041E1,1.395944359E1
9.761413167E0,-4.278702393E0,-3.081941071E0,1.606594070E1,1.690917223E1
9.771398167E0,7.600594482E0,-9.842033386E0,4.390789307E1,4.563483024E1
9.781383167E0,-6.549330597E0,-2.229598526E1,2.986334885E1,3.783945420E1
9.791369167E0,-1.471275467E1,-1.387749161E1,-3.735482025E0,2.056705495E1
9.801354167E0,-1.078417419E1,-4.659660187E0,-1.398781219E1,1.826662903E1
9.811339167E0,-5.559439087E-1,6.572831726E-1,-2.923570404E0,3.047680873E0
9.821324167E0,7.913593597E0,4.333937531E0,5.896987152E0,1.077879565E1
9.831310167E0,4.172273712E0,5.668412476E0,-3.881428528E-1,7.049072478E0
9.841295167E0,7.065307617E-1,2.086960144E0,-1.102113144E1,1.123921379E1
9.851280167E0,1.228794708E0,1.109492798E0,-9.765841827E0,9.905179317E0
9.861265167E0,1.473086700E0,1.272204437E0,-7.754923553E0,7.995456702E0
9.871251167E0,1.898651733E0,1.089584198E0,-6.289770355E0,6.659826068E0
9.881236167E0,2.662363586E0,1.241069183E0,-5.880222015E0,6.573084781E0
9.891221167E0,2.930456085E0,1.610351257E0,-5.117707672E0,6.113242663E0
9.901207167E0,2.085163879E0,2.059866486E0,-1.429377594E0,3.260993506E0
9.911192167E0,3.212319946E0,2.083068237E0,1.054407349E0,3.971139330E0
9.921177167E0,5.314698029E0,1.328188019E0,-9.955796814E-1,5.567879080E0
9.931162167E0,5.788313141E0,8.158035278E-1,-2.665207672E0,6.424440547E0
9.941148167E0,7.256759491E0,2.023791504E-1,-2.080074463E0,7.551703477E0
9.951133167E0,9.937983856E0,-6.548881531E-1,-8.666976929E-1,9.997177927E0
9.961118167E0,6.599626007E0,-9.062155151E-1,2.692900085E-1,6.666993858E0
9.971103167E0,4.686753845E-1,-7.735913086E-1,-2.210902405E-1,9.311181575E-1
9.981089167E0,-2.034868469E0,-8.641529846E-1,-4.056564331E-1,2.247667059E0
9.991074167E0,-3.851490784E0,-5.559439087E-1,-8.039781189E-1,3.973592292E0
1.000105917E1,-4.008214874E0,1.032852173E-1,9.848020935E-1,4.128715233E0
1.001104517E1,-3.832180939E0,8.665480042E-1,3.123255157E0,5.019087464E0
1.002103017E1,-3.173251190E0,1.656455383E0,2.820135498E0,4.557031027E0
1.003101517E1,-1.919159088E0,2.178120575E0,1.208886108E0,3.144644092E0
1.004100017E1,-6.968009949E-1,2.344873810E0,-6.117778015E-1,2.521554459E0
1.005098617E1,2.294728088E-1,2.132615204E0,-1.636995850E0,2.698232901E0
1.006097117E1,5.815406799E-1,1.675316162E0,-1.991458740E0,2.666604905E0
1.007095617E1,4.873864746E-1,9.199868774E-1,-2.034269714E0,2.285207803E0
1.008094117E1,3.821553040E-1,-2.709365845E-2,-1.697619781E0,1.740313094E0
1.009092717E1,1.887574768E-1,-7.030879211E-1,-1.458267517E0,1.629879186E0
1.010091217E1,-1.356179810E-1,-1.149309998E0,-1.065634003E0,1.573175621E0
1.011089717E1,-3.002755737E-1,-1.395248566E0,-4.742138672E-1,1.503915813E0
1.012088317E1,-2.665956116E-1,-1.452130280E0,-9.430389404E-2,1.479408258E0
1.013086817E1,-1.347198486E-3,-1.444945221E0,1.648072815E-1,1.454314253E0
1.014085317E1,2.734812927E-1,-1.326990509E0,2.472857666E-1,1.377260353E0
1.015083817E1,1.730401611E-1,-1.117426300E0,2.826123047E-1,1.165527412E0
1.016082417E1,3.787124634E-2,-8.860075378E-1,3.592529297E-2,8.875439229E-1
1.017080917E1,1.170565796E-1,-7.541317749E-1,-1.706451416E-1,7.820081464E-1
1.018079417E1,3.315605164E-1,-6.535409546E-1,-3.080593872E-1,7.949520372E-1
1.019077917E1,3.890409851E-1,-3.424877930E-1,-4.593946838E-1,6.925996332E-1
1.020076517E1,3.285667419E-1,2.019300842E-1,-6.715036011E-1,7.743700337E-1
1.021075017E1,3.847000122E-1,5.721102905E-1,-7.270381165E-1,1.001942467E0
1.022073517E1,3.412902832E-1,9.098080444E-1,-4.123924255E-1,1.055602789E0
1.023072117E1,3.091072083E-1,1.238075409E0,6.212081909E-2,1.277590302E0
1.024070617E1,5.451663208E-1,1.574425964E0,5.752537537E-1,1.762651501E0
1.025069117E1,7.129673767E-1,1.766326904E0,9.304650879E-1,2.119905303E0
1.026067617E1,6.948550415E-1,1.447340240E0,1.272054749E0,2.048350698E0
1.027066217E1,3.695814514E-1,4.402345276E-1,2.403102722E0,2.470890443E0
1.028064717E1,1.945953369E-3,-6.340814209E-1,3.552263031E0,3.608411794E0
1.029063217E1,-6.084846497E-1,-1.511257324E0,4.978197784E0,5.237996320E0
1.030061817E1,-2.076332245E0,-2.283052368E0,8.021968231E0,8.595083363E0
1.031060317E1,-4.820874939E0,-3.140768738E0,1.250439697E1,1.376463610E1
1.032058817E1,-9.404792633E0,-4.288432159E0,1.243763580E1,1.617206107E1
1.033057317E1,-1.117486176E1,-4.887785797E0,-4.196822662E0,1.289888777E1
1.034055917E1,-5.970184937E0,-2.807262268E0,-1.864148483E1,1.977444782E1
1.035054417E1,-1.498533783E0,-1.889670410E0,-5.256169739E0,5.783059578E0
1.036052917E1,-1.721719666E0,-6.323600006E0,3.514272034E1,3.574860876E1
1.037051417E1,6.461613007E0,-1.115719849E1,-2.215273315E1,2.563160367E1
1.038050017E1,1.270063889E1,-3.261178345E1,3.149435715E1,4.708215352E1
1.039048517E1,-3.549119568E-1,-7.179999115E1,4.539729584E1,8.494868546E1
1.040047017E1,-1.996024246E1,-1.234274812E2,2.784509583E1,1.280941207E2
1.041045617E1,-2.311238754E1,-1.065135539E2,-1.221235428E1,1.096743417E2
1.042044117E1,-1.094613739E1,-2.172821594E1,1.370894211E1,2.792612371E1
1.043042617E1,1.053733749E1,-1.197375046E1,1.076546310E1,1.924321640E1
1.044041117E1,1.148591492E1,-2.929123856E1,3.203338623E0,3.162537393E1
1.045039717E1,7.126081238E0,-4.300377319E1,5.663173370E0,4.395653621E1
1.046038217E1,5.349276123E0,-4.270768890E1,1.969604187E0,4.308643391E1
1.047036717E1,-2.731220398E0,-4.086367355E1,-1.193019104E-1,4.095501940E1
1.048035217E1,-8.240364075E0,-4.199082962E1,4.428690491E0,4.302030534E1
1.049033817E1,-1.185774170E1,-4.449587036E1,2.799179077E0,4.613376118E1
1.050032317E1,-1.360565689E1,-4.147275696E1,9.665400696E-1,4.365819131E1
1.051030817E1,-1.125165207E1,-3.232078857E1,6.455924835E0,3.482688636E1
1.052029417E1,-7.657176819E0,-2.044358734E1,1.455752747E1,2.623917350E1
1.053027917E1,-7.684270477E0,-1.077788727E1,1.180220718E1,1.773423134E1
1.054026417E1,-2.347418518E0,-8.123157806E0,9.764794006E0,1.291693727E1
1.055024917E1,1.437760162E1,-1.150402725E1,3.478616180E1,3.935905391E1
1.056023517E1,4.193080444E0,-1.823837311E1,2.119786880E1,2.827666563E1
1.057022004E1,-1.140972336E1,-1.043869263E1,-1.083222427E1,1.888081496E1
1.058020504E1,-1.107531876E1,-2.622546387E0,-1.832923416E1,2.157547821E1
1.059019104E1,-3.786825256E0,2.010768585E0,-4.483027496E0,6.203287141E0
1.060017604E1,2.063309326E0,6.677913208E0,1.044812302E1,1.257040352E1
1.061016104E1,-3.761827240E0,5.771697693E0,3.516936493E0,7.735158740E0
1.062014604E1,-3.206033020E0,3.306773529E0,-7.087611237E0,8.452670107E0
1.063013204E1,-1.392105103E0,2.389181671E0,-1.195084808E1,1.226657717E1
1.064011704E1,-5.087919617E-1,2.070344696E0,-9.671537933E0,9.903728713E0
1.065010204E1,2.923420715E-1,1.934427338E0,-5.642216949E0,5.971774034E0
1.066008704E1,7.634124756E-1,2.406844940E0,-1.614692230E0,2.997154012E0
1.067007304E1,1.467548218E0,2.921325073E0,1.089733887E0,3.446064117E0
1.068005804E1,3.094365234E0,2.798131256E0,1.287322998E-1,4.173871912E0
1.069004304E1,6.061045990E0,1.473685455E0,-1.703457642E0,6.466049432E0
1.070002904E1,7.203919373E0,2.866539001E-1,-1.943708038E0,7.467035940E0
1.071001404E1,7.523504791E0,2.418969727E-1,-1.511856079E0,7.677717584E0
1.071999904E1,7.643106079E0,1.380130005E-1,-6.057902527E-1,7.668317935E0
1.072998404E1,5.761518860E0,-1.213975525E-1,5.748046875E-2,5.763084325E0
1.073997004E1,2.891836395E0,-4.367916870E-1,-1.686991882E-1,2.929498956E0
1.074995504E1,6.538403320E-1,-1.055305481E0,-2.155517578E-1,1.260015634E0
1.075994004E1,-1.508862305E-1,-1.301842804E0,-3.100053406E-1,1.346723673E0
1.076992604E1,-1.218615875E0,-1.216520233E0,-1.347198486E-1,1.727164024E0
1.077991104E1,-2.056423645E0,-8.554710388E-1,-1.270857239E-1,2.230887646E0
1.078989604E1,-2.472558289E0,-3.541635132E-1,1.302291870E-1,2.501186903E0
1.079988104E1,-2.471510468E0,2.212399292E-1,5.655239868E-1,2.545020329E0
1.080986704E1,-2.527793427E0,6.652166748E-1,8.921447754E-1,2.761915120E0
1.081985204E1,-2.061063995E0,1.073717194E0,9.294172668E-1,2.502932253E0
1.082983704E1,-9.590556335E-1,1.052611084E0,6.917115784E-1,1.583111717E0
1.083982304E1,2.838098145E-1,7.602690125E-1,-2.230361938E-2,8.118216759E-1
1.084980804E1,6.719526672E-1,4.830455017E-1,-1.090781708E0,1.369181536E0
1.085979304E1,4.978646851E-1,3.998185730E-1,-1.840422821E0,1.948045250E0
1.086977804E1,2.535726929E-1,5.207670593E-1,-1.932780762E0,2.017706350E0
1.087976404E1,1.954934692E-1,6.959028625E-1,-1.697170715E0,1.844691554E0
1.088974904E1,1.227447510E-1,7.963439941E-1,-1.338666229E0,1.562452337E0
1.089973404E1,-8.756790161E-2,9.057664490E-1,-1.071022797E0,1.405407709E0
1.090972004E1,-2.101629639E-1,9.282197571E-1,-8.810678101E-1,1.296935185E0
1.091970504E1,-3.616479492E-1,8.358618164E-1,-7.080276489E-1,1.153584573E0
1.092969004E1,-4.825964355E-1,6.301895142E-1,-3.709286499E-1,8.761428004E-1
1.093967504E1,-5.346881104E-1,3.716770935E-1,-1.167572021E-1,6.615644197E-1
1.094966104E1,-5.695655823E-1,1.288819885E-1,-4.311035156E-2,5.855544568E-1
1.095964604E1,-4.930746460E-1,-1.166075134E-1,-6.256988525E-2,5.105241515E-1
1.096963104E1,-3.188369751E-1,-3.228785706E-1,-1.769320679E-1,4.870447050E-1
1.097961604E1,-9.280700684E-2,-4.285588074E-1,-3.254232788E-1,5.460550359E-1
1.098960204E1,2.097138977E-1,-3.817062378E-1,-3.987707520E-1,5.905062942E-1
1.099958704E1,5.905220032E-1,-3.222798157E-1,-4.144880676E-1,7.901777484E-1
1.100957204E1,8.325686646E-1,-2.210902405E-1,-4.451742554E-1,9.696553992E-1
1.101955804E1,7.150630188E-1,-1.405577087E-1,-5.592370605E-1,9.185954933E-1
1.102954304E1,5.451663208E-1,-2.957849121E-1,-5.207670593E-1,8.098724354E-1
1.103952804E1,4.093986511E-1,-5.852828979E-1,-4.373904419E-1,8.375402825E-1
1.104951304E1,2.252815247E-1,-7.631130981E-1,-3.629951477E-1,8.745620865E-1
1.105949904E1,-1.848655701E-1,-8.180488586E-1,3.502716064E-2,8.394081940E-1
1.106948404E1,-5.568420410E-1,-1.021475830E0,9.693841553E-1,1.514328752E0
1.107946904E1,-7.370672607E-1,-1.328188019E0,2.314187622E0,2.768179169E0
1.108945504E1,-1.359472961E0,-1.873504028E0,3.737877045E0,4.396579225E0
1.109944004E1,-2.729723511E0,-2.805166626E0,5.232967987E0,6.534853036E0
1.110942504E1,-4.292024689E0,-4.178860016E0,7.609126740E0,9.684170419E0
1.111941004E1,-4.480183411E0,-5.386099548E0,4.762496338E0,8.471333018E0
1.112939604E1,-2.034269714E0,-6.472540283E0,-4.452041931E0,8.114968167E0
1.113938104E1,6.180647278E-1,-9.387877808E0,5.601950684E0,1.094970800E1
1.114936604E1,5.164111176E0,-2.237262589E1,1.885194717E1,2.970855677E1
1.115935204E1,8.370443573E0,-4.394381836E1,-6.354884949E0,4.518305059E1
1.116933704E1,-4.053121490E0,-7.363337860E1,3.136278076E1,8.013692192E1
1.117932204E1,-1.279419434E1,-7.870782623E1,4.421505432E0,7.986340231E1
1.118930704E1,-1.392673920E1,-4.052911926E1,1.103909409E1,4.425409779E1
1.119929304E1,-1.850287308E1,-3.355781616E1,4.384502380E1,5.823117249E1
1.120927804E1,-1.160222305E1,-4.885854813E1,9.491462402E0,5.110633193E1
1.121926304E1,1.135239258E0,-3.601450745E1,3.686683502E0,3.622050731E1
1.122924904E1,4.231550446E0,-2.555410995E1,7.548652496E0,2.697963508E1
1.123923404E1,3.329077148E0,-2.557147385E1,4.466112671E0,2.617115190E1
1.124921904E1,-1.121617584E0,-3.129257675E1,3.086731110E0,3.146444493E1
1.125920404E1,-3.602109375E0,-3.736469971E1,2.034269714E-1,3.753847837E1
1.126919004E1,-4.086951141E0,-3.873554901E1,-6.222560120E-1,3.895552758E1
1.127917504E1,-4.964127045E0,-3.715244110E1,-1.390458527E0,3.750839655E1
1.128916004E1,-5.335804138E0,-3.582949219E1,3.040177917E-1,3.622589879E1
1.129914504E1,-5.140909424E0,-3.442511261E1,2.819985809E0,3.492090560E1
1.130913104E1,-5.053790588E0,-3.104993134E1,5.119204559E0,3.187232798E1
1.131911604E1,-3.149450684E0,-2.465657639E1,9.471703491E0,2.660035650E1
1.132910104E1,1.107846222E0,-1.484537888E1,1.865136429E1,2.386390553E1
1.133908704E1,2.354304199E0,-9.035959625E0,2.170800797E1,2.363110079E1
1.134907204E1,1.568797668E1,-1.263702118E1,3.288721069E1,3.856650806E1
1.135905704E1,2.268068527E1,-2.842618744E1,5.310865997E1,6.436607321E1
1.136904304E1,-1.107232498E1,-2.316178482E1,1.649090698E1,3.051253299E1
1.137902804E1,-1.873698624E1,-5.507646790E0,-2.028042664E1,2.815500898E1
1.138901304E1,-1.279643967E1,1.987716522E0,-2.321746902E1,2.658478424E1
1.139899804E1,-9.391919403E0,4.383035431E0,-8.186326447E0,1.320738772E1
1.140898404E1,-1.005863297E1,5.622907104E0,1.348096619E0,1.160217850E1
1.141896904E1,-6.083050232E0,4.901557159E0,-7.572303314E0,1.087973070E1
1.142895404E1,-2.144889679E0,4.455035706E0,-1.309656555E1,1.399885439E1
1.143894004E1,-1.087039490E0,3.502266998E0,-1.018661682E1,1.082657338E1
1.144892504E1,-9.461824036E-1,3.032843170E0,-5.590724030E0,6.430364998E0
1.145891004E1,-7.183561707E-1,3.023712158E0,-4.202959900E0,5.227211754E0
1.146889504E1,-3.629951477E-1,2.833757172E0,-3.441942444E0,4.473132345E0
1.147888104E1,2.128573608E-1,2.172731781E0,-3.370091858E0,4.015419129E0
1.148886604E1,1.354832611E0,1.362616425E0,-4.182751923E0,4.603010816E0
1.149885104E1,2.115850067E0,5.932164001E-1,-4.263733521E0,4.796681221E0
1.150883704E1,3.846850433E0,7.334747314E-3,-1.480122070E0,4.121780368E0
1.151882204E1,8.828491058E0,-5.887257385E-1,5.135221252E0,1.023031523E1
1.152880704E1,1.632160904E1,-2.665656738E0,2.847229156E0,1.678116091E1
1.153879204E1,1.787313263E1,-4.352199554E0,-1.471440125E0,1.845414986E1
1.154877804E1,8.417894897E0,-2.991080017E0,7.514373779E-2,8.933821173E0
1.155876304E1,-3.026705933E-1,-4.599934387E-1,-1.223555603E0,1.341749517E0
1.156874804E1,-3.363355865E0,5.227130127E-1,-2.057471466E0,3.977257900E0
1.157873383E1,-3.951033783E0,6.935078430E-1,-9.235794067E-2,4.012499355E0
1.158871883E1,-4.744683380E0,4.632865906E-1,2.099384308E0,5.209037273E0
1.159870383E1,-4.271217957E0,1.884580994E-1,2.738106079E0,5.077011344E0
1.160868883E1,-3.045566711E0,1.454974365E-1,2.009571075E0,3.651714940E0
1.161867483E1,-1.567989349E0,2.254312134E-1,1.137334900E0,1.950112947E0
1.162865983E1,-1.411564636E-1,4.111949158E-1,6.298901367E-1,7.653548133E-1
1.163864483E1,7.994874573E-1,5.427713013E-1,2.383044434E-1,9.952737752E-1
1.164863083E1,7.683522034E-1,4.607418823E-1,-2.417472839E-1,9.279493197E-1
1.165861583E1,3.656895447E-1,1.722917175E-1,-6.927593994E-1,8.020778419E-1
1.166860083E1,8.277786255E-2,-7.200027466E-2,-9.816586304E-1,9.877701558E-1
1.167858583E1,-1.558259583E-1,-2.504292297E-1,-1.228046265E0,1.262970370E0
1.168857183E1,-3.245251465E-1,-5.237608337E-1,-1.360071716E0,1.493129953E0
1.169855683E1,-3.582051086E-1,-7.282356262E-1,-1.540746002E0,1.741417891E0
1.170854183E1,-4.016148376E-1,-8.387059021E-1,-1.636846161E0,1.882548120E0
1.171852783E1,-5.864804077E-1,-7.274871826E-1,-1.374890900E0,1.662384389E0
1.172851283E1,-7.503895569E-1,8.187973022E-2,-8.921447754E-1,1.168636418E0
1.173849783E1,-2.468367004E-1,1.030157776E0,-6.042933655E-1,1.219558884E0
1.174848283E1,3.573069763E-1,1.298699341E0,-5.733078003E-1,1.463888687E0
1.175846883E1,6.908134460E-1,1.461710358E0,-6.204597473E-1,1.731701673E0
1.176845383E1,1.002016296E0,1.677112427E0,-8.129594421E-1,2.116044849E0
1.177843883E1,1.383123779E0,1.783990173E0,-1.112336884E0,2.516534456E0
1.178842483E1,1.744322662E0,1.898502045E0,-1.301842804E0,2.888211601E0
1.179840983E1,2.159858551E0,1.828896790E0,-1.322499847E0,3.123917136E0
1.180839483E1,2.319277039E0,1.780846710E0,-1.134939880E0,3.136646222E0
1.181838083E1,2.141297150E0,1.786534882E0,-6.830296326E-1,2.871130412E0
1.182836583E1,1.778152313E0,1.847907257E0,-8.457412720E-2,2.565879900E0
1.183835083E1,1.388961639E0,1.938618622E0,3.743714905E-1,2.414044451E0
1.184833583E1,9.038204956E-1,2.051034851E0,9.668394470E-1,2.440986269E0
1.185832183E1,-7.933502197E-2,2.118694153E0,2.480192413E0,3.262899534E0
1.186830683E1,-1.652413788E0,1.085991669E0,4.775219879E0,5.168420854E0
1.187829183E1,-1.983824615E0,-1.447040863E0,5.083728333E0,5.645686949E0
1.188827783E1,-2.640359344E0,-3.372337189E0,4.930447083E0,6.530961952E0
1.189826283E1,-3.437302094E0,-4.613556061E0,4.764142914E0,7.469739146E0
1.190824783E1,-3.572171631E0,-5.946384430E0,4.050576782E0,8.032874343E0
1.191823283E1,-3.061583405E0,-7.896529083E0,9.210945740E0,1.251279289E1
1.192821883E1,1.466201019E0,-1.130104935E1,1.581625992E1,1.949403856E1
1.193820383E1,1.288520508E0,-1.557361450E1,1.497186584E0,1.569838595E1
1.194818883E1,-7.095993805E0,-1.537707321E1,-4.035158844E0,1.740948062E1
1.195817483E1,-1.333561844E1,-2.661196014E1,2.903721680E1,4.158359173E1
1.196815983E1,-1.844539261E1,-3.883943298E1,1.272369095E1,4.484000863E1
1.197814483E1,-1.798659668E1,-4.642820206E1,2.506837006E1,5.574512341E1
1.198812983E1,-3.481265671E1,-7.837177505E1,2.106808868E1,8.830583533E1
1.199811583E1,-3.333971970E1,-8.274014099E1,-4.133055267E0,8.930033587E1
1.200810083E1,-1.192599976E1,-3.815475677E1,1.796833466E1,4.382779923E1
1.201808583E1,-5.096900940E-1,-8.249944153E0,5.617069244E0,9.993639448E0
1.202807183E1,3.497027893E0,-1.063538361E1,1.075034454E1,1.552129171E1
1.203805683E1,2.543810120E0,-2.210438370E1,1.036369858E1,2.454548832E1
1.204804183E1,3.207829285E-1,-3.650803116E1,7.821834412E0,3.733792086E1
1.205802683E1,-6.491251373E0,-4.424858459E1,6.095474396E0,4.513566651E1
1.206801283E1,-1.557541077E1,-4.118251053E1,5.072351990E0,4.432066503E1
1.207799783E1,-1.687934921E1,-3.768832672E1,4.233496399E0,4.151198493E1
1.208798283E1,-1.362332016E1,-3.710034943E1,3.752696228E0,3.970029608E1
1.209796883E1,-1.006506958E1,-3.561319199E1,2.200573883E0,3.707354305E1
1.210795383E1,-6.770869904E0,-3.085862915E1,3.896397400E0,3.183208421E1
1.211793883E1,-4.613556061E0,-2.377969986E1,5.113815765E0,2.475702197E1
1.212792483E1,-2.965183868E0,-1.550655396E1,5.688321075E0,1.678101688E1
1.213790983E1,-1.668280792E0,-8.057444458E0,9.221274261E0,1.235870021E1
1.214789483E1,-1.525777130E0,-4.650379486E0,8.906778259E0,1.016290924E1
1.215787983E1,-2.226619720E0,-4.751868439E0,2.847528534E0,5.970469646E0
1.216786583E1,8.011340332E-1,-2.362387390E0,7.923323364E0,8.306728782E0
1.217785083E1,7.595056000E0,-1.966909790E-1,1.988449997E1,2.128654274E1
1.218783583E1,4.428391113E0,-3.267854462E0,1.217074081E1,1.335726217E1
1.219782183E1,-1.116079102E0,-4.629273376E0,2.842588806E-1,4.770388628E0
1.220780683E1,-1.264869690E0,-1.108145599E0,-7.670050049E0,7.852232151E0
1.221779183E1,-2.735711060E0,1.413360901E0,-8.972940674E0,9.486588869E0
1.222777783E1,-4.152963867E0,2.456541595E0,-7.710615692E0,9.095894670E0
1.223776283E1,-3.507655792E0,2.867287445E0,-7.279362488E0,8.574036662E0
1.224774783E1,-1.835183716E0,2.535876617E0,-6.553671570E0,7.262863109E0
1.225773283E1,-1.076261902E0,2.203717346E0,-4.336332550E0,4.981815915E0
1.226771883E1,-8.559201050E-1,2.295626221E0,-2.147584076E0,3.258008032E0
1.227770383E1,-5.743556213E-1,2.457589417E0,-4.495152283E-1,2.563531560E0
1.228768883E1,-8.382568359E-3,2.101030884E0,4.670288086E-1,2.152328263E0
1.229767483E1,1.299298096E0,1.332229614E-2,6.860234070E-1,1.469347182E0
1.230765983E1,2.258802795E0,-1.667382660E0,-2.287243652E-1,2.816854600E0
1.231764483E1,2.798131256E0,-2.246378632E0,-9.012757874E-1,3.699736954E0
1.232762983E1,2.771786041E0,-2.469714203E0,-7.893086243E-1,3.795430701E0
1.233761583E1,1.419198761E0,-1.648970947E0,-9.714797974E-1,2.382646282E0
1.234760083E1,7.364685059E-2,-5.511538696E-1,-1.417701874E0,1.522850304E0
1.235758583E1,-7.429051208E-1,3.421884155E-1,-1.502874756E0,1.711032864E0
1.236757183E1,-1.121318207E0,1.056652679E0,-1.623673553E0,2.238344302E0
1.237755683E1,-1.440454559E0,1.384321289E0,-1.572180634E0,2.542244424E0
1.238754183E1,-1.462009735E0,1.680255890E0,-1.373394012E0,2.616666474E0
1.239752783E1,-1.242715759E0,2.124681702E0,-1.079854431E0,2.687880277E0
1.240751283E1,-9.488768005E-1,2.439626770E0,-6.355783081E-1,2.693715973E0
1.241749783E1,-4.828958130E-1,2.512974243E0,-2.272274780E-1,2.569019315E0
1.242748383E1,1.311273193E-1,2.415676575E0,-1.185534668E-1,2.422135961E0
1.243746883E1,8.011340332E-1,2.174827423E0,-9.684860229E-2,2.319713282E0
1.244745383E1,1.278940430E0,1.553020477E0,-1.267863464E-1,2.015846225E0
1.245743883E1,1.689536591E0,1.010847931E0,-3.141966248E-1,1.993756994E0
1.246742483E1,1.926793213E0,6.315367126E-1,-4.089495850E-1,2.068480231E0
1.247740983E1,1.737137604E0,3.339555359E-1,-3.574566650E-1,1.804701810E0
1.248739483E1,1.198707275E0,2.200424194E-2,-3.406915283E-1,1.246376362E0
1.249738083E1,4.914280701E-1,-2.296224976E-1,-1.956431580E-1,5.766318450E-1
1.250736583E1,-1.910028076E-1,-4.328997803E-1,1.890568542E-1,5.095358539E-1
1.251735083E1,-6.207591248E-1,-5.429209900E-1,6.860234070E-1,1.072722335E0
1.252733683E1,-1.100960541E0,-6.592291260E-1,1.094673615E0,1.686714995E0
1.253732183E1,-1.510808258E0,-7.345225525E-1,1.293609924E0,2.120257439E0
1.254730683E1,-1.676962738E0,-8.045768738E-1,1.349144440E0,2.297768198E0
1.255729183E1,-1.645528107E0,-8.131091309E-1,1.530866547E0,2.390075646E0
1.256727783E1,-1.495689697E0,-7.210505676E-1,1.859882355E0,2.493223609E0
1.257726329E1,-1.145717468E0,-6.158193970E-1,2.013612671E0,2.397193783E0
1.258724829E1,-7.408094788E-1,-6.584806824E-1,1.999841309E0,2.231985832E0
1.259723429E1,-3.597019958E-1,-1.143771515E0,2.454745331E0,2.731917540E0
1.260721929E1,1.598675537E-1,-2.029928741E0,3.200195160E0,3.793074926E0
1.261720429E1,4.414320374E-1,-3.147055664E0,3.924389191E0,5.049718023E0
1.262719029E1,7.188052368E-1,-4.226311340E0,4.412673798E0,6.152241751E0
1.263717529E1,1.282083893E0,-4.895419922E0,3.351231079E0,6.069565476E0
1.264716029E1,2.021695862E0,-5.057233429E0,1.842069397E0,5.749442040E0
1.265714529E1,3.088227997E0,-5.099445648E0,-1.772763519E0,6.219661452E0
1.266713129E1,3.612737274E0,-8.271050262E0,3.607797546E0,9.719997232E0
1.267711629E1,-1.541793823E-2,-2.048415298E1,-3.664230194E0,2.080930907E1
1.268710129E1,-6.671476593E0,-2.633338943E1,-1.289328827E1,3.006980016E1
1.269708729E1,-1.202629120E1,-5.434928009E1,2.479518814E1,6.093666615E1
1.270707229E1,-1.044842239E1,-7.458599762E1,2.040107574E0,7.534190474E1
1.271705729E1,-9.550589447E0,-5.699113632E1,1.706092163E1,6.025179188E1
1.272704329E1,-3.399595505E1,-5.576623352E1,4.909565506E1,8.170667724E1
1.273702829E1,-2.040436890E1,-4.220263916E1,-2.103336090E1,5.137901608E1
1.274701329E1,-2.687211914E0,-2.375365402E1,2.987637177E0,2.409114284E1
1.275699829E1,5.231620789E0,-2.299143906E1,8.868308258E0,2.519172518E1
1.276698429E1,6.781647491E0,-2.762176025E1,-2.779719543E0,2.857760002E1
1.277696929E1,3.304827576E0,-3.220133698E1,4.049379272E0,3.262277519E1
1.278695429E1,3.304079132E0,-3.555137054E1,5.640869751E0,3.614742450E1
1.279694029E1,8.255332947E-1,-3.374372955E1,4.503085785E0,3.405287904E1
1.280692529E1,-5.400469666E0,-3.138388687E1,6.023324432E0,3.240978039E1
1.281691029E1,-1.113833771E1,-2.686583221E1,8.226742401E0,3.022440732E1
1.282689629E1,-1.006746460E1,-1.987716522E1,7.860154724E0,2.362705172E1
1.283688129E1,-6.230942688E0,-1.381013168E1,4.353846130E0,1.576389419E1
1.284686629E1,-4.258344727E0,-8.918453979E0,2.680026855E0,1.023986646E1
1.285685129E1,-3.087629242E0,-5.373825073E0,3.722608795E0,7.229748716E0
1.286683729E1,-3.125350800E0,-2.636018372E0,2.372416534E0,4.727025565E0
1.287682229E1,-3.160078583E0,-2.486329651E-1,-4.324507141E-1,3.199207499E0
1.288680729E1,-1.495090942E0,1.605261841E0,-1.642234955E0,2.740273371E0
1.289679329E1,-1.847158813E-1,2.568059692E0,6.007008362E-1,2.643840395E0
1.290677829E1,3.694317627E-1,3.812721405E0,5.151986389E0,6.419991285E0
1.291676329E1,3.318598938E-1,4.753515015E0,4.580923920E0,6.609909223E0
1.292674929E1,3.966751099E-1,3.548969879E0,8.590635681E-1,3.672945488E0
1.293673429E1,8.113128662E-1,2.091001740E0,6.346801758E-1,2.330951687E0
1.294671929E1,2.261796570E0,1.237177277E0,9.960287476E-1,2.763766380E0
1.295670529E1,3.579656067E0,7.984396362E-1,-3.367996216E-2,3.667775586E0
1.296669029E1,3.793261871E0,6.279441833E-1,-1.636546783E0,4.178688179E0
1.297667529E1,3.220103760E0,6.789880371E-1,-2.996019745E0,4.450418777E0
1.298666129E1,3.024460602E0,2.755769348E-1,-3.873644714E0,4.922238104E0
1.299664629E1,2.365381165E0,-4.577481079E-1,-4.258494415E0,4.892784082E0
1.300663129E1,8.831634521E-1,-9.632469177E-1,-4.101321259E0,4.304492813E0
1.301661629E1,-6.610253906E-1,-1.147214355E0,-3.511996765E0,3.753288774E0
1.302660229E1,-1.840422821E0,-1.008153534E0,-2.028731232E0,2.918780588E0
1.303658729E1,-2.901266785E0,-8.896000671E-1,-1.058898010E0,3.214032083E0
1.304657229E1,-3.493135986E0,-7.695497131E-1,-1.418600006E0,3.847938637E0
1.305655829E1,-3.825444946E0,-5.313949585E-1,-1.577419739E0,4.171889580E0
1.306654329E1,-4.164489899E0,-5.418731689E-2,-1.106199646E0,4.309244718E0
1.307652829E1,-4.125421143E0,7.682025146E-1,-2.995271301E-1,4.207012147E0
1.308651429E1,-2.981350250E0,1.753154297E0,5.207670593E-1,3.497598838E0
1.309649929E1,-1.398242340E0,2.599344635E0,6.141728210E-1,3.014777343E0
1.310648429E1,-5.266049194E-1,3.120560760E0,5.789959717E-1,3.217211298E0
1.311647029E1,-3.872447205E-1,3.114573212E0,5.044509888E-1,3.178835567E0
1.312645529E1,-4.414320374E-1,2.924169159E0,3.600013733E-1,2.979132173E0
1.313644029E1,-7.614665222E-1,2.666704559E0,1.681004333E-1,2.778381224E0
1.314642629E1,-1.194066925E0,1.986818390E0,-1.386117554E-1,2.322166306E0
1.315641129E1,-1.373992767E0,1.076112213E0,-5.119354248E-2,1.745993814E0
1.316639629E1,-1.531614990E0,2.850073242E-1,8.187973022E-2,1.560057032E0
1.317638129E1,-1.829046478E0,-3.365002441E-1,1.541793823E-2,1.859806750E0
1.318636729E1,-2.249821472E0,-7.723937988E-1,-3.891906738E-3,2.378718980E0
1.319635229E1,-2.591860199E0,-1.057251434E0,1.764830017E-1,2.804757768E0
1.320633729E1,-2.381098480E0,-1.407972107E0,5.251080322E-1,2.815626728E0
1.321632329E1,-2.080972595E0,-1.726060638E0,4.346960449E-1,2.738374138E0
1.322630829E1,-1.447040863E0,-1.916614380E0,-1.451681213E0,2.806192489E0
1.323629329E1,-4.604425049E-1,-1.513652344E0,-2.298619995E0,2.790484653E0
1.324627929E1,2.877915344E0,-9.361532593E-1,-2.448907471E-1,3.036239637E0
1.325626429E1,1.035875885E1,-1.072519684E0,1.197434921E1,1.586944304E1
1.326624929E1,1.044647644E1,-7.043303375E0,5.911956024E0,1.391719140E1
1.327623529E1,1.393751678E0,-1.466620148E1,-2.125430145E0,1.488480644E1
1.328622029E1,-6.387966156E0,-4.743485870E1,1.312201263E1,4.962921667E1
1.329620529E1,-1.846874405E1,-1.589674754E2,4.858880905E1,1.672501872E2
1.330619029E1,-3.483466095E1,-1.190730363E2,1.308548859E1,1.247520405E2
1.331617629E1,-1.244946121E1,-1.744187943E1,-1.951761292E1,2.898526274E1
1.332616129E1,2.593806152E0,-5.662275238E0,6.609954529E0,9.081888025E0
1.333614629E1,4.643942871E0,-1.445394287E1,4.965474243E0,1.597305870E1
1.334613229E1,-3.210074615E0,-1.969993378E1,-8.523724823E0,2.170359083E1
1.335611729E1,-4.347259827E0,-1.768048325E1,-9.267977142E0,2.043021185E1
1.336610229E1,-3.973337402E0,-2.650193893E1,-6.335275726E0,2.753680984E1
1.337608829E1,-2.687361603E0,-3.012859726E1,1.294807434E0,3.027591141E1
1.338607329E1,-5.219496002E0,-2.395408722E1,7.736362152E0,2.570783407E1
1.339605829E1,-8.246501312E0,-1.541689041E1,8.279283142E0,1.934507232E1
1.340604429E1,-5.035827942E0,-9.089099121E0,6.629114685E0,1.232543903E1
1.341602929E1,-2.037263489E0,-7.049290924E0,2.004781036E0,7.606713618E0
1.342601429E1,-4.890330505E-1,-6.271658020E0,-5.400769043E-1,6.313836449E0
1.343600029E1,1.667232971E0,-5.221142578E0,9.195378113E-1,5.557476531E0
1.344598529E1,8.736133118E0,-1.624571686E0,1.471544907E1,1.719022095E1
1.345597029E1,1.368948257E1,9.427395630E-1,1.964290237E1,2.396109982E1
1.346595529E1,4.842280426E0,-2.445614319E0,1.025622208E1,1.160253422E1
1.347594129E1,-1.809586945E0,-2.534080353E0,2.189796295E0,3.806753992E0
1.348592629E1,-2.924019470E0,8.078700256E-1,-5.020709381E0,5.866009421E0
1.349591129E1,-1.780397644E0,2.255210266E0,-8.624016266E0,9.090074019E0
1.350589729E1,-1.199755096E0,1.782942352E0,-8.187973022E0,8.465293730E0
1.351588229E1,-1.036295013E0,1.340761871E0,-5.676645355E0,5.924175237E0
1.352586729E1,-7.735913086E-1,1.098565521E0,-3.716471558E0,3.951892022E0
1.353585329E1,-8.466394043E-1,1.115031281E0,-3.277584229E0,3.564077919E0
1.354583829E1,-1.110540619E0,1.294208679E0,-3.836671600E0,4.198609953E0
1.355582329E1,-1.447789307E0,1.774559784E0,-4.172573090E0,4.759781769E0
1.356580929E1,-1.703906708E0,2.599644012E0,-3.989054718E0,5.057074708E0
1.357579346E1,-1.531016235E0,2.650687866E0,-3.392694855E0,4.569522432E0
1.358577846E1,-9.687854004E-1,2.307002563E0,-2.678080902E0,3.665095265E0
1.359576446E1,-3.339555359E-1,1.426533508E0,-2.379751282E0,2.794591260E0
1.360574946E1,1.342707825E-1,4.352947998E-1,-2.152823181E0,2.200490367E0
1.361573446E1,3.785627747E-1,-6.990463257E-2,-1.401685181E0,1.453587898E0
1.362572046E1,7.375163269E-1,-1.817221069E-1,-1.095721436E-1,7.674368451E-1
1.363570546E1,5.622308350E-1,6.496490479E-2,3.231779480E0,3.280963663E0
1.364569046E1,1.318757629E-1,1.255888367E-1,4.812941437E0,4.816385475E0
1.365567646E1,6.222560120E-1,-1.731898499E-1,2.951262817E0,3.021117258E0
1.366566146E1,1.160087585E0,-5.180726624E-1,2.092498627E0,2.448010007E0
1.367564646E1,1.837728424E0,-6.248007202E-1,2.191293182E0,2.927351621E0
1.368563146E1,2.305505676E0,-3.299139404E-1,2.495760040E0,3.413651683E0
1.369561746E1,2.563419342E0,-1.935475159E-1,2.971321106E0,3.929036584E0
1.370560246E1,2.282303925E0,-4.605921936E-1,3.084485779E0,3.864596860E0
1.371558746E1,1.416803741E0,-1.049317932E0,2.632874908E0,3.168663953E0
1.372557346E1,-9.280700684E-2,-1.904639282E0,2.041754150E0,2.793747295E0
1.373555846E1,-1.803449707E0,-2.353106689E0,6.759942627E-1,3.040807488E0
1.374554346E1,-3.337010651E0,-1.686243439E0,-1.400337982E0,3.992493392E0
1.375552946E1,-3.436403961E0,-2.035766602E-1,-5.797144775E0,6.742195725E0
1.376551446E1,-2.373314667E0,7.737409973E-1,-7.762707367E0,8.154196668E0
1.377549946E1,-1.468446350E0,9.433383179E-1,-5.418731689E0,5.692879323E0
1.378548546E1,-1.306183777E0,1.070274353E0,-4.520898743E0,4.825984738E0
1.379547046E1,-4.784051514E-1,-1.865420837E0,1.141376495E0,2.238617139E0
1.380545546E1,-3.086581421E-1,-9.361532593E0,-4.188290405E-1,9.375978888E0
1.381544146E1,-1.627565460E0,-6.088289337E0,-5.492079163E-1,6.325967571E0
1.382542646E1,-2.215393066E0,-3.640160248E1,5.297034760E0,3.685163777E1
1.383541146E1,2.198478241E0,-1.315994376E2,-2.420466614E0,1.316400544E2
1.384539746E1,-1.372316254E1,-1.197166978E2,1.566941528E0,1.205108636E2
1.385538246E1,-2.166429886E1,-5.391114120E1,8.803642731E0,5.876442050E1
1.386536746E1,-1.413166306E1,-2.926444427E1,5.817203064E0,3.301441278E1
1.387535346E1,-7.279212799E0,-3.007336212E1,1.205398361E1,3.320681510E1
1.388533846E1,3.957021332E0,-3.629562286E1,1.161000687E1,3.831217191E1
1.389532346E1,6.183790741E0,-3.249831940E1,4.913681946E0,3.344434634E1
1.390530846E1,6.356830902E0,-2.273412415E1,4.196223907E0,2.397619642E1
1.391529446E1,5.916895752E0,-1.492052261E1,4.652475128E0,1.671158805E1
1.392527946E1,1.239272919E0,-1.051204010E1,-1.721869354E0,1.072397401E1
1.393526446E1,-2.398312683E0,-5.579647064E0,-7.504194946E0,9.653875226E0
1.394525046E1,-4.881349182E0,-2.006427612E0,-8.324339447E0,9.856365904E0
1.395523546E1,-5.223836975E0,2.020797729E-2,-5.439538422E0,7.541714616E0
1.396522046E1,-4.454137573E0,1.761387177E0,6.110293579E-1,4.828579831E0
1.397520646E1,-4.380041656E0,3.600013733E0,6.978338470E0,8.991221919E0
1.398519146E1,-4.689148865E0,4.099524994E0,6.916517029E0,9.307654380E0
1.399517646E1,-3.999383240E0,3.317102051E0,8.876541138E-1,5.271258117E0
1.400516246E1,-3.304827576E0,2.775228882E0,-1.327140198E0,4.514984137E0
1.401514746E1,-2.812651062E0,2.604434052E0,-1.501976624E0,4.117039774E0
1.402513246E1,-2.167043610E0,2.398911438E0,-2.006427612E0,3.804813511E0
1.403511846E1,-1.192270660E0,2.188598785E0,-2.659968567E0,3.645120951E0
1.404510346E1,-3.146456909E-1,1.740580444E0,-2.796185303E0,3.308666565E0
1.405508846E1,8.921447754E-2,1.229094086E0,-2.307601318E0,2.616038100E0
1.406507446E1,2.746788025E-1,8.291258240E-1,-1.822909241E0,2.021359982E0
1.407505946E1,6.319857788E-1,5.969586182E-1,-1.953886871E0,2.138560152E0
1.408504446E1,9.385482788E-1,4.327500916E-1,-2.148631897E0,2.384274427E0
1.409503046E1,1.100661163E0,2.453398132E-1,-1.857936401E0,2.173378543E0
1.410501546E1,1.510059814E0,1.631607056E-1,-1.714384918E0,2.290418675E0
1.411500046E1,2.204316101E0,1.495390320E-1,-2.137405243E0,3.074064503E0
1.412498646E1,3.116818542E0,1.468446350E-1,-9.162446594E-1,3.252018673E0
1.413497146E1,4.820126495E0,4.191284180E-2,2.182162170E0,5.291238783E0
1.414495646E1,5.497168579E0,-2.496807861E-1,2.784659271E0,6.167295204E0
1.415494246E1,4.031865692E0,-6.819818115E-1,9.822573853E-1,4.205457136E0
1.416492746E1,6.936575317E-1,-4.902305603E-1,-4.559518433E-1,9.640429746E-1
1.417491246E1,-6.770420837E-1,7.065307617E-2,-7.213499451E-1,9.918284043E-1
1.418489846E1,-1.165476379E0,5.445675659E-1,-2.983296204E-1,1.320564117E0
1.419488346E1,-1.692530365E0,7.701484680E-1,1.965412903E-1,1.869870631E0
1.420486846E1,-2.071093140E0,1.000968475E0,1.038839722E0,2.523995374E0
1.421485446E1,-2.513872375E0,1.331181793E0,1.952389984E0,3.450134191E0
1.422483946E1,-3.375031586E0,1.719773712E0,2.564616852E0,4.574463840E0
1.423482446E1,-4.417912903E0,1.814077606E0,3.837270355E0,6.126457031E0
1.424481046E1,-5.203928375E0,7.662565613E-1,6.190676422E0,8.123576442E0
1.425479546E1,-3.426674194E0,-1.536854095E0,6.487060089E0,7.495729794E0
1.426478046E1,-1.810485077E0,-2.945874023E0,4.204307098E0,5.443549224E0
1.427476646E1,-1.596130829E0,-2.698737946E0,-1.012195129E0,3.294747198E0
1.428475146E1,-2.535427551E0,-1.698068848E0,-7.135062561E0,7.760215746E0
1.429473646E1,-3.561244354E0,-6.563850403E-1,-1.036833893E1,1.098252042E1
1.430472246E1,-1.657952271E0,-2.950364685E-1,-8.286617889E0,8.455997179E0
1.431470746E1,5.227579193E0,-4.126768341E0,5.548062744E0,8.668264035E0
1.432469246E1,1.888023834E0,-7.514972534E0,-1.083746338E0,7.823934580E0
1.433467846E1,1.371148682E-1,-1.245140717E1,1.196012878E0,1.250946792E1
1.434466346E1,3.372486877E-1,-2.570649307E1,8.610244904E0,2.711224521E1
1.435464846E1,-4.347858582E0,-4.874373688E1,-2.230361938E0,4.898806256E1
1.436463346E1,9.870773621E0,-8.678922089E1,1.161883850E0,8.735645945E1
1.437461946E1,6.528074799E0,-9.491941406E1,2.856405075E1,9.933889431E1
1.438460446E1,-1.187091431E1,-5.204841476E1,1.205113953E1,5.472829296E1
1.439458946E1,-8.810678101E-1,-2.669518707E1,-1.207359283E1,2.931178837E1
1.440457546E1,3.249742126E-1,-2.499607040E1,-6.423143005E0,2.581019004E1
1.441456046E1,4.287983093E0,-2.930590805E1,-1.826352081E0,2.967420778E1
1.442454546E1,7.944130096E0,-3.230507126E1,5.912704468E0,3.378885772E1
1.443453146E1,6.680158539E0,-3.443678833E1,1.315494415E1,3.746424248E1
1.444451646E1,8.921447754E-2,-3.157833252E1,1.190249863E1,3.374712606E1
1.445450146E1,-6.651268616E0,-2.550710770E1,7.046895905E0,2.728572262E1
1.446448746E1,-9.563612366E0,-1.797881287E1,4.556374969E0,2.086770103E1
1.447447246E1,-9.532177734E0,-1.185804108E1,1.751807098E0,1.531484178E1
1.448445746E1,-7.611072693E0,-7.126230927E0,7.643106079E-1,1.045446151E1
1.449444346E1,-5.613776093E0,-3.717070312E0,1.645228729E0,6.930935817E0
1.450442846E1,-3.458557892E0,-1.255139923E0,1.527723083E0,3.983834426E0
1.451441346E1,-1.524878998E0,5.773493958E-1,1.925146637E0,2.522851136E0
1.452439946E1,-5.819897461E-1,1.803300018E0,2.142045593E0,2.859888520E0
1.453438446E1,-6.511459351E-1,2.279759216E0,1.882635040E0,3.027475484E0
1.454436946E1,-1.012344818E0,2.238445129E0,1.134341125E0,2.705957948E0
1.455435546E1,-1.302441559E0,1.885778503E0,-2.161505127E-1,2.302006868E0
1.456434046E1,-1.219364319E0,1.403481445E0,-1.406624908E0,2.331352213E0
1.457432621E1,-4.923262024E-1,1.089135132E0,-2.042951660E0,2.366907668E0
1.458431221E1,3.540138245E-1,9.159452820E-1,-2.700833588E0,2.873809948E0
1.459429721E1,8.427474976E-1,8.054750061E-1,-3.241359558E0,3.444622638E0
1.460428221E1,1.140927429E0,7.439529419E-1,-3.254232788E0,3.527777263E0
1.461426821E1,1.589993591E0,7.231462097E-1,-3.465144196E0,3.880495375E0
1.462425321E1,2.019899597E0,7.538323975E-1,-3.692521362E0,4.275859174E0
1.463423821E1,2.303709412E0,7.415579224E-1,-3.839365997E0,4.538470719E0
1.464422421E1,2.202070770E0,4.724176025E-1,-3.183879089E0,3.899920528E0
1.465420921E1,1.994602203E0,-7.454498291E-2,-2.444566498E0,3.155930967E0
1.466419421E1,2.232457581E0,-6.575825500E-1,-2.242337036E0,3.231773049E0
1.467418021E1,2.573598175E0,-1.052910461E0,-1.908381500E0,3.372528422E0
1.468416521E1,2.475102997E0,-1.325343933E0,-1.814975739E0,3.343173390E0
1.469415021E1,1.997146912E0,-1.346300354E0,-2.252366180E0,3.297616388E0
1.470413621E1,1.224154358E0,-1.311722260E0,-2.545007629E0,3.113877488E0
1.471412121E1,4.040098572E-1,-1.147663422E0,-1.877096558E0,2.236927978E0
1.472410621E1,-7.288343811E-1,-8.117619324E-1,1.164578247E-1,1.097141474E0
1.473409221E1,-1.648821259E0,-3.902384949E-1,1.308728485E0,2.140950227E0
1.474407721E1,-2.201022949E0,3.112028503E-1,1.687440948E0,2.790843276E0
1.475406221E1,-2.515369263E0,9.312135315E-1,1.799108734E0,3.229711041E0
1.476404821E1,-2.808160400E0,1.366957397E0,2.439626770E0,3.963094263E0
1.477403321E1,-3.204236755E0,1.719474335E0,3.309916992E0,4.917242689E0
1.478401821E1,-3.371289368E0,1.976190491E0,3.822002106E0,5.466134004E0
1.479400421E1,-3.489244080E0,2.093247070E0,4.254153442E0,5.886792765E0
1.480398921E1,-3.245999908E0,2.106120300E0,5.458698578E0,6.691012501E0
1.481397421E1,-3.039579163E0,1.634900208E0,6.083499298E0,6.994347996E0
1.482396021E1,-3.697012024E0,9.930349731E-1,7.069798279E0,8.039655718E0
1.483394521E1,-4.970563660E0,3.378474426E-1,8.581654358E0,9.922975134E0
1.484393021E1,-6.332132263E0,-3.802093506E-2,9.297765198E0,1.124925696E1
1.485391621E1,-7.359296265E0,-2.862048340E-1,6.871909790E0,1.007294887E1
1.486390121E1,-6.356531525E0,-8.801696777E-1,9.915380859E-1,6.493330383E0
1.487388621E1,-4.390519867E0,-1.245410156E0,-9.828561401E-1,4.668374166E0
1.488387221E1,-8.110134888E-1,-2.794239349E0,3.144660645E0,4.284204359E0
1.489385721E1,2.037263489E-1,-9.016949158E0,-1.254990234E0,9.106145015E0
1.490384221E1,-2.504292297E0,-1.291649002E1,-4.245172119E-1,1.316386756E1
1.491382821E1,-3.130290527E0,-4.729968979E1,1.926374084E1,5.116787160E1
1.492381321E1,8.489895172E0,-1.202262383E2,-3.238216095E0,1.205691201E2
1.493379821E1,-1.085377945E1,-8.847022522E1,-6.694678345E0,8.938458478E1
1.494378421E1,-1.052985306E1,-4.048690704E1,7.072492676E0,4.242743923E1
1.495376921E1,-4.245321808E0,-3.482762558E1,3.487148438E0,3.525828222E1
1.496375421E1,-3.091670837E0,-3.097478760E1,8.482859802E-1,3.114025505E1
1.497374021E1,3.014730835E0,-2.961471588E1,-7.903564453E-2,2.976787270E1
1.498372521E1,7.815098419E0,-2.948807922E1,2.329156494E0,3.059489417E1
1.499371021E1,9.145980835E0,-2.536954376E1,5.772296448E0,2.757865338E1
1.500369621E1,8.155340881E0,-1.880150208E1,6.429429932E0,2.147891139E1
1.501368121E1,6.235283661E0,-1.343366455E1,4.792284393E0,1.556624859E1
1.502366621E1,4.280049591E0,-9.686207428E0,2.258204041E0,1.082778483E1
1.503365221E1,1.302890625E0,-6.624174957E0,-1.497036896E0,6.915080427E0
1.504363721E1,-1.489253082E0,-3.968247986E0,-3.803590393E0,5.694924644E0
1.505362221E1,-3.023263092E0,-2.012714539E0,-4.389322357E0,5.697130005E0
1.506360821E1,-3.619473267E0,-7.403604126E-1,-3.595523071E0,5.155240676E0
1.507359321E1,-3.044219513E0,9.042695618E-1,-8.050259399E-1,3.276132270E0
1.508357921E1,-2.453847198E0,2.274220734E0,3.332669678E0,4.722301685E0
1.509356421E1,-3.166964264E0,3.256627808E0,6.751709747E0,8.137620773E0
1.510354921E1,-4.010460205E0,3.424578552E0,4.647385712E0,7.029205024E0
1.511353521E1,-3.745660858E0,1.859133911E0,1.129850464E0,4.331618200E0
1.512352021E1,-1.618584137E0,3.165916443E-1,-1.547481995E0,2.261580289E0
1.513350521E1,6.283932495E-1,4.659809875E-1,-4.612657928E0,4.678528564E0
1.514349121E1,1.399439850E0,9.366023254E-1,-5.640270996E0,5.886281740E0
1.515347621E1,1.233135681E0,1.450034637E0,-4.696782990E0,5.067839235E0
1.516346121E1,1.556762695E0,1.490600281E0,-3.378324738E0,4.007302998E0
1.517344721E1,1.765728149E0,1.270108795E0,-2.516866150E0,3.326497778E0
1.518343221E1,1.900897064E0,1.027164001E0,-2.091301117E0,3.006994496E0
1.519341721E1,2.246378632E0,7.041357422E-1,-1.788331146E0,2.956374873E0
1.520340321E1,2.498753815E0,2.556683350E-1,-1.542242889E0,2.947481985E0
1.521338821E1,2.494861908E0,-7.903564453E-2,-1.267863464E0,2.799653610E0
1.522337321E1,2.505190430E0,-1.941462708E-1,-7.828720093E-1,2.631835946E0
1.523335921E1,2.600242767E0,-1.935475159E-1,-1.423539734E-1,2.611319158E0
1.524334421E1,2.663860474E0,5.658233643E-2,5.393284607E-1,2.718497631E0
1.525332921E1,2.650687866E0,6.864724731E-1,5.697152710E-1,2.796777809E0
1.526331521E1,1.588347015E0,1.265767822E0,2.902464294E-1,2.051647487E0
1.527330021E1,3.396437073E-1,1.563199310E0,2.441423035E-1,1.618195104E0
1.528328521E1,-8.890013123E-1,1.772314453E0,3.592529297E-2,1.983106775E0
1.529327121E1,-2.014810181E0,1.785487061E0,3.336561584E-1,2.712701705E0
1.530325621E1,-3.174448700E0,1.348845062E0,1.291514282E0,3.683003759E0
1.531324121E1,-4.095483398E0,5.057981873E-1,2.251917114E0,4.701058047E0
1.532322721E1,-4.448000336E0,-6.959028625E-1,2.035616913E0,4.940923395E0
1.533321221E1,-4.873415680E0,-1.692530365E0,8.795709229E-1,5.233400848E0
1.534319721E1,-4.827610931E0,-2.199226685E0,-9.366023254E-1,5.386988884E0
1.535318321E1,-4.041146393E0,-1.828447723E0,-3.601360931E0,5.713482809E0
1.536316821E1,-2.989882507E0,-1.012195129E0,-5.040168915E0,5.947036159E0
1.537315321E1,-2.365081787E0,-2.222877502E-1,-4.816384277E0,5.370342746E0
1.538313921E1,-1.688488770E0,2.972817993E-1,-2.386337585E0,2.938363127E0
1.539312421E1,1.672472076E0,-3.782184906E0,1.231848358E1,1.299411879E1
1.540311021E1,9.951306152E-1,-1.080647781E1,3.757935333E0,1.148443841E1
1.541309521E1,-1.392254791E0,-2.279370026E1,-4.211492157E0,2.322127927E1
1.542308021E1,5.523513794E-2,-6.047978165E1,1.312306046E1,6.188716955E1
1.543306621E1,3.084186401E0,-9.010183228E1,1.228046265E1,9.098715375E1
1.544305121E1,-7.923622742E0,-6.166097534E1,1.755249939E0,6.219276951E1
1.545303621E1,-8.200546875E0,-3.467838593E1,2.421364746E0,3.571697673E1
1.546302221E1,-6.718778229E0,-3.514331909E1,9.104067993E-1,3.579139140E1
1.547300721E1,-7.262747040E0,-3.866115372E1,6.095324707E-1,3.934213811E1
1.548299221E1,-5.757028198E0,-3.676145416E1,9.744735718E-2,3.720964098E1
1.549297821E1,-2.988984375E0,-3.179942276E1,1.438658295E0,3.197197293E1
1.550296321E1,1.084045715E0,-2.798221069E1,2.129172363E0,2.808402830E1
1.551294821E1,4.617298279E0,-2.401785461E1,3.146756287E0,2.465925503E1
1.552293421E1,6.336772614E0,-1.838222397E1,3.390150146E0,1.973712145E1
1.553291921E1,6.297105103E0,-1.241503281E1,3.403622131E0,1.433077862E1
1.554290421E1,5.066663818E0,-7.507637787E0,2.777923279E0,9.473783042E0
1.555289021E1,2.432741089E0,-3.671864319E0,9.638456726E-1,4.508859641E0
1.556287521E1,-9.032217407E-1,-1.038989410E0,-7.659571838E-1,1.575436103E0
1.557286021E1,-3.716022491E0,-2.396516418E-1,-2.555186462E0,4.516108272E0
1.558284542E1,-4.727618866E0,-4.125421143E-1,-3.414699097E0,5.846429770E0
1.559283042E1,-3.740571442E0,-5.403762817E-2,-2.442620544E0,4.467794747E0
1.560281542E1,-2.471211090E0,6.695576477E-1,5.688171387E-1,2.622736097E0
1.561280142E1,-2.786455536E0,2.720891876E0,1.106064926E1,1.172627601E1
1.562278642E1,-6.824159088E0,2.012115784E0,1.837952957E1,1.970849727E1
1.563277242E1,-6.077062683E0,-4.121828613E0,1.008467880E1,1.247481096E1
1.564275742E1,-4.810845795E0,-4.339625702E0,2.277513885E0,6.867580214E0
1.565274242E1,-4.297263794E0,-2.400707703E0,-3.335064697E0,5.945799368E0
1.566272842E1,-3.642225952E0,-8.825646973E-1,-6.650520172E0,7.633750644E0
1.567271342E1,-2.101330261E0,3.382965088E-1,-5.710774384E0,6.094503873E0
1.568269842E1,-1.044677582E0,1.230740662E0,-3.927382965E0,4.246223119E0
1.569268442E1,-5.716612244E-1,1.154399414E0,-2.988984375E0,3.254759923E0
1.570266942E1,-2.143542480E-1,8.827143860E-1,-2.458786926E0,2.621214524E0
1.571265442E1,1.871109009E-1,8.042774963E-1,-1.911674652E0,2.082395917E0
1.572264042E1,4.469705200E-1,8.063731384E-1,-1.577120361E0,1.826835767E0
1.573262542E1,6.023474121E-1,8.325686646E-1,-1.186432800E0,1.569590958E0
1.574261042E1,7.997868347E-1,9.110055542E-1,-8.443940735E-1,1.477359622E0
1.575259642E1,1.082099762E0,1.002764740E0,-2.746788025E-1,1.500641684E0
1.576258142E1,1.465751953E0,1.189276886E0,6.090834045E-1,1.983378656E0
1.577256642E1,1.900298309E0,1.359922028E0,1.068777466E0,2.569592741E0
1.578255242E1,2.070644073E0,1.457070007E0,9.849517822E-1,2.716753559E0
1.579253742E1,1.883533173E0,1.324296112E0,4.370910645E-1,2.343609610E0
1.580252342E1,1.254541168E0,1.014141083E0,-7.858657837E-2,1.615094898E0
1.581250842E1,4.656816101E-1,6.228547668E-1,5.852828979E-2,7.798929307E-1
1.582249342E1,-8.158035278E-2,8.023315430E-2,7.045848083E-1,7.138154279E-1
1.583247942E1,-6.451583862E-2,-4.992118835E-1,1.034498749E0,1.150461846E0
1.584246442E1,2.920426941E-1,-4.016148376E-1,7.679031372E-1,9.144717826E-1
1.585244942E1,2.733316040E-1,1.975891113E-2,5.498066711E-1,6.143190995E-1
1.586243542E1,2.152523804E-1,2.095642090E-2,7.327262878E-1,7.639768136E-1
1.587242042E1,3.315605164E-1,5.164260864E-2,4.818479919E-1,5.871769941E-1
1.588240542E1,8.695417786E-1,1.770817566E-1,-1.335672455E0,1.603584036E0
1.589239142E1,1.435814209E0,7.634124756E-3,-2.590363312E0,2.961689182E0
1.590237642E1,2.206860809E0,-2.463427277E0,1.586700439E-1,3.311175737E0
1.591236242E1,1.138831787E0,-6.633605347E0,-8.201445007E-1,6.780434701E0
1.592234742E1,-2.273472290E0,-1.102906494E1,-1.542542267E0,1.136610691E1
1.593233242E1,-9.715247040E0,-3.630400543E1,1.004590942E1,3.890099140E1
1.594231842E1,-1.147813110E1,-8.854821304E1,1.117995117E1,8.998624803E1
1.595230342E1,-4.130959625E0,-9.043039902E1,-3.316652985E0,9.058544078E1
1.596228842E1,-5.293591919E0,-5.048521545E1,4.173920288E0,5.093329663E1
1.597227442E1,-4.377496948E0,-2.785886719E1,7.514523468E0,2.918470530E1
1.598225942E1,-6.000871124E0,-3.059278198E1,2.734663239E0,3.129548125E1
1.599224442E1,-3.338806915E0,-3.447316269E1,2.600991211E0,3.473199869E1
1.600223042E1,-1.196012878E0,-3.322685440E1,5.578599243E0,3.371312904E1
1.601221542E1,1.047821045E0,-2.902554108E1,6.208489380E0,2.970059434E1
1.602220042E1,2.373763733E0,-2.601230713E1,4.529880066E0,2.651027517E1
1.603218642E1,3.922742615E0,-2.157238998E1,5.730682983E0,2.266267078E1
1.604217142E1,4.579427032E0,-1.575892914E1,6.550079041E0,1.766970670E1
1.605215642E1,3.492537231E0,-1.065095123E1,3.550466766E0,1.175782262E1
1.606214242E1,7.295828247E-1,-6.941065979E0,-6.282435608E-1,7.007522957E0
1.607212742E1,-2.623145142E0,-4.284989319E0,-3.659290466E0,6.215499225E0
1.608211342E1,-4.325105896E0,-2.687960358E0,-5.123246155E0,7.223525667E0
1.609209842E1,-3.727249146E0,-8.369096375E-1,-4.917873230E0,6.227220972E0
1.610208342E1,-2.530637512E0,7.101232910E-1,-2.764002228E0,3.814198425E0
1.611206942E1,-2.031575317E0,1.528471527E0,1.747915192E0,3.085244074E0
1.612205442E1,-2.368225250E0,2.361938324E0,5.723797302E0,6.629411666E0
1.613203942E1,-2.697839813E0,2.886746979E0,4.570595398E0,6.041687684E0
1.614202542E1,-2.438578949E0,2.960842896E0,1.380279694E0,4.076570860E0
1.615201042E1,-1.339564362E0,1.929337921E0,-5.183720398E-1,2.405303944E0
1.616199542E1,7.125183105E-2,1.631906433E0,-2.363734589E0,2.873227564E0
1.617198142E1,5.276527405E-1,2.064806213E0,-3.700604553E0,4.270400001E0
1.618196642E1,5.002597046E-1,1.682052155E0,-3.504362640E0,3.919198482E0
1.619195242E1,2.793191528E-1,1.224453735E0,-2.483186188E0,2.782718057E0
1.620193742E1,1.880090332E-1,9.252259827E-1,-2.053729248E0,2.260352703E0
1.621192242E1,1.203497314E-1,7.685018921E-1,-1.785936127E0,1.947985386E0
1.622190842E1,9.654922485E-2,6.786886597E-1,-1.661245422E0,1.797130046E0
1.623189342E1,2.145039368E-1,6.084846497E-1,-1.692081299E0,1.810912651E0
1.624187842E1,5.763015747E-1,4.158352661E-1,-1.758543091E0,1.896711964E0
1.625186442E1,9.834548950E-1,1.017883301E-1,-1.685944061E0,1.954469691E0
1.626184942E1,1.340013428E0,-7.679031372E-2,-1.435514832E0,1.965257126E0
1.627183442E1,1.546733551E0,-2.064207458E-1,-8.550219727E-1,1.779341669E0
1.628182042E1,1.614991608E0,-3.638932800E-1,1.658551025E-1,1.663768051E0
1.629180542E1,9.497749329E-1,-6.632707214E-1,2.147284698E0,2.439842628E0
1.630179142E1,4.415817261E-2,-8.354127502E-1,3.429518280E0,3.530079325E0
1.631177642E1,-2.026785278E-1,-8.011340332E-1,2.277214508E0,2.422519399E0
1.632176142E1,-6.469546509E-1,-4.837939453E-1,5.087919617E-1,9.547126071E-1
1.633174742E1,-1.236728210E0,-7.289840698E-2,3.308120728E-1,1.282282134E0
1.634173242E1,-1.625320129E0,4.857398987E-1,1.346899109E0,2.166043855E0
1.635171742E1,-2.048490143E0,9.376501465E-1,2.811004486E0,3.602394465E0
1.636170342E1,-2.220781860E0,9.836045837E-1,4.674778748E0,5.268102731E0
1.637168842E1,-2.053429871E0,3.876937866E-1,6.407276001E0,6.739441109E0
1.638167342E1,-2.922073517E0,-3.496728516E-1,7.694000244E0,8.237622503E0
1.639165942E1,-3.590433655E0,-1.164428558E0,6.364465027E0,7.399562337E0
1.640164442E1,-1.865271149E0,-1.190624084E0,-4.312681732E0,4.847272005E0
1.641162942E1,1.100661163E0,-9.116043091E-2,-1.061592407E1,1.067321925E1
1.642161542E1,4.735103302E0,-3.383563843E0,4.118086395E0,7.129399913E0
1.643160042E1,3.764821014E0,-7.708669739E0,8.490493927E0,1.207004364E1
1.644158642E1,7.427554321E-1,-1.384635635E1,-4.647834778E-1,1.387405109E1
1.645157142E1,-3.859274597E0,-3.532070023E1,1.857637024E0,3.557944182E1
1.646155642E1,-5.057981873E-1,-7.790190216E1,1.028421387E1,7.857943272E1
1.647154242E1,2.603086853E0,-7.924775345E1,1.153875504E1,8.012568474E1
1.648152742E1,-6.146667938E0,-3.636642563E1,1.065634003E0,3.689761531E1
1.649151242E1,-5.521268463E0,-3.150887695E1,5.093907166E-1,3.199301816E1
1.650149842E1,-7.460635529E0,-3.566049362E1,4.578379211E0,3.671911551E1
1.651148342E1,-4.920118561E0,-3.811254456E1,4.104165344E0,3.864735169E1
1.652146842E1,-9.982740784E-1,-3.504721893E1,3.788172455E0,3.526548393E1
1.653145442E1,6.086343384E-1,-2.992876282E1,4.169878693E0,3.022398332E1
1.654143942E1,2.314337311E0,-2.607727203E1,4.748575287E0,2.660693972E1
