"Time (s)","Acceleration x (m/s^2)","Acceleration y (m/s^2)","Acceleration z (m/s^2)","Absolute acceleration (m/s^2)"
1.896650001E-2,-3.351380768E0,4.074976044E0,6.108347626E0,8.071498840E0
2.895149999E-2,-2.389331360E0,3.816763000E0,7.413932648E0,8.674271235E0
3.893650000E-2,-1.476379852E0,3.805686035E0,8.788524170E0,9.690258033E0
4.892150001E-2,-1.110390930E0,3.905827789E0,9.528136139E0,1.035730839E1
5.890649999E-2,-1.311123505E0,3.933819580E0,9.425898743E0,1.029764771E1
6.889150001E-2,-1.955383759E0,3.775748291E0,9.036558380E0,9.986950894E0
7.887649999E-2,-2.725831604E0,3.586990814E0,8.807085571E0,9.892492977E0
8.886150000E-2,-3.067421265E0,3.446582794E0,8.514893188E0,9.684596645E0
9.884650001E-2,-2.909948730E0,3.500171356E0,8.190218353E0,9.370094867E0
1.088315000E-1,-2.537074127E0,3.667822723E0,7.860903168E0,9.037890643E0
1.188165000E-1,-2.047442322E0,3.844305725E0,7.667205963E0,8.817979012E0
1.288015000E-1,-1.350641327E0,4.027674408E0,7.744145966E0,8.832790605E0
1.387865000E-1,-5.852828979E-1,4.283043365E0,7.821535034E0,8.936633977E0
1.487715000E-1,-1.148112488E-1,4.499642944E0,7.827821960E0,9.029660287E0
1.587565000E-1,1.377136230E-1,4.607867889E0,7.944728851E0,9.185321336E0
1.687415000E-1,2.740800476E-1,4.616250458E0,8.394842834E0,9.584272240E0
1.787265000E-1,-7.604187012E-2,4.556674347E0,9.253008270E0,1.031441833E1
1.887115000E-1,2.050735474E-1,4.530478821E0,9.343120880E0,1.038562474E1
1.986965000E-1,1.194515991E0,4.500541077E0,8.821904755E0,9.975356732E0
2.086815000E-1,1.356928253E0,4.088298340E0,7.978708191E0,9.067260997E0
2.186665000E-1,9.952803040E-1,3.468137970E0,6.724316711E0,7.631185956E0
2.286515000E-1,1.169218597E0,3.266956329E0,6.389912109E0,7.271248349E0
2.386365000E-1,1.065035248E0,3.938459930E0,7.268734589E0,8.335482543E0
2.486215000E-1,2.273771667E-1,4.125870209E0,8.677904205E0,9.611478906E0
2.586065000E-1,9.660910034E-1,4.018543396E0,9.707463226E0,1.055068079E1
2.685915000E-1,2.465522919E0,3.494034119E0,1.045575714E1,1.129645675E1
2.785765000E-1,3.609144745E0,3.083288269E0,1.000354752E1,1.107264897E1
2.885615000E-1,3.851939850E0,2.827769623E0,8.956325226E0,1.015132913E1
2.985465000E-1,3.060385895E0,2.938389587E0,8.123157806E0,9.164376026E0
3.085315000E-1,2.796933746E0,3.043171692E0,6.929989014E0,8.068982591E0
3.185165000E-1,2.341281281E0,3.032094727E0,5.643264771E0,6.820676926E0
3.285015000E-1,3.639082489E0,3.242706757E0,4.588707733E0,6.694348895E0
3.384862083E-1,4.647984467E0,4.280648346E0,4.502337341E0,7.758785433E0
3.484712083E-1,6.186036072E0,4.982838135E0,5.755082245E0,9.809010643E0
3.584562083E-1,7.622299347E0,4.815785522E0,6.749464417E0,1.126261548E1
3.684412083E-1,6.818470917E0,4.187991028E0,7.425907745E0,1.091672663E1
3.784262083E-1,6.155798950E0,3.667373657E0,7.470964050E0,1.035175319E1
3.884112083E-1,5.999673615E0,3.450474701E0,6.769522705E0,9.681337552E0
3.983962083E-1,5.204377441E0,3.043471069E0,5.917344818E0,8.447676035E0
4.083812083E-1,4.684358826E0,2.402204590E0,5.187761993E0,7.390986335E0
4.183662083E-1,4.915029144E0,1.935924225E0,5.571563873E0,7.677736521E0
4.283512083E-1,5.358706512E0,1.780098267E0,7.092101898E0,9.065450604E0
4.383362083E-1,4.761897583E0,2.163002014E0,7.764803009E0,9.361966250E0
4.483212083E-1,4.113595734E0,2.900368652E0,8.024213562E0,9.472159810E0
4.583062083E-1,4.426744537E0,2.941233673E0,8.425978088E0,9.962129765E0
4.682912083E-1,4.879852295E0,2.902763672E0,8.395591278E0,1.013533168E1
4.782762083E-1,5.106481018E0,3.040926361E0,7.236401825E0,9.364234774E0
4.882612083E-1,5.231471100E0,2.669698334E0,5.703888702E0,8.187180552E0
4.982462083E-1,5.166356506E0,1.835034027E0,4.388274536E0,7.022502605E0
5.082322083E-1,5.412295074E0,1.318757629E0,3.390748901E0,6.521444454E0
5.182172083E-1,5.334606628E0,1.124311981E0,2.809507599E0,6.133142609E0
5.282022083E-1,4.927602997E0,7.616162109E-1,2.539918213E0,5.595758668E0
5.381872083E-1,4.254303131E0,-4.610412598E-2,2.018103333E0,4.708923633E0
5.481722083E-1,3.445684662E0,-9.445358276E-1,1.326990509E0,3.811272036E0
5.581572083E-1,3.452420654E0,-6.903643799E-1,1.052162018E0,3.674623282E0
5.681422083E-1,2.587070160E0,-1.131047974E0,3.867956543E-1,2.849879367E0
5.781272083E-1,1.937570801E0,-1.971101074E0,2.252815247E-1,2.773115904E0
5.881122083E-1,1.737886047E0,-3.583248596E0,7.080276489E-2,3.983080648E0
5.980972083E-1,2.641856232E0,-4.563410339E0,5.138813782E-1,5.297942275E0
6.080822083E-1,4.348307648E0,-4.047133942E0,1.422042847E0,6.108132153E0
6.180672083E-1,5.380710754E0,-3.053949280E0,2.014959869E0,6.506820860E0
6.280522083E-1,5.923931122E0,-3.001707916E0,2.395618286E0,7.059900660E0
6.380372083E-1,6.237678680E0,-3.507805481E0,2.575544128E0,7.605705896E0
6.480222083E-1,6.180946655E0,-3.870501251E0,2.776875458E0,7.803583715E0
6.580072083E-1,5.851182404E0,-4.320016479E0,3.171754303E0,7.934664660E0
6.679922083E-1,5.792055359E0,-4.436174927E0,3.593577118E0,8.132733228E0
6.779772083E-1,6.332731018E0,-4.139641571E0,3.650009766E0,8.400159866E0
6.879622083E-1,6.739285583E0,-4.052073669E0,3.100352783E0,8.452778157E0
6.979472083E-1,7.378007355E0,-4.139342194E0,2.276316376E0,8.760751256E0
7.079322083E-1,8.165968781E0,-4.374203796E0,1.862576752E0,9.449121501E0
7.179172083E-1,9.214687958E0,-4.711302795E0,2.226769409E0,1.058609230E1
7.279022083E-1,9.757758636E0,-4.944368134E0,3.159330139E0,1.138604395E1
7.378872083E-1,1.013856674E1,-5.200934601E0,4.393064575E0,1.221225911E1
7.478722083E-1,1.038944504E1,-5.485941925E0,5.358407135E0,1.291311945E1
7.578572083E-1,1.048764084E1,-5.436694336E0,5.935457153E0,1.322035957E1
7.678422083E-1,1.093042007E1,-5.299130402E0,6.072122955E0,1.358033664E1
7.778272083E-1,1.143023071E1,-5.350174255E0,5.803731079E0,1.389092629E1
7.878122083E-1,1.176523407E1,-5.528453522E0,5.351222076E0,1.405774195E1
7.977972083E-1,1.224019638E1,-6.036946106E0,4.913981323E0,1.450566573E1
8.077822083E-1,1.272024811E1,-6.489604797E0,4.661306763E0,1.502156660E1
8.177672083E-1,1.306288559E1,-6.651717682E0,4.374652863E0,1.529777486E1
8.277522083E-1,1.328038330E1,-6.818770294E0,4.037853241E0,1.546507251E1
8.377372083E-1,1.338800949E1,-7.125482483E0,3.766018524E0,1.562671412E1
8.477222083E-1,1.351868774E1,-7.550598450E0,3.614533539E0,1.590067005E1
8.577072083E-1,1.375818970E1,-8.187374268E0,3.595672760E0,1.640883127E1
8.676922083E-1,1.425216248E1,-8.641978912E0,3.655997314E0,1.706382874E1
8.776772083E-1,1.520328461E1,-9.257648621E0,3.632795563E0,1.816703400E1
8.876622083E-1,1.672157730E1,-1.065349594E1,3.358565826E0,2.010940297E1
8.976472083E-1,1.825019852E1,-1.279928375E1,3.116519165E0,2.250786756E1
9.076322083E-1,1.932316727E1,-1.520597900E1,3.515289917E0,2.483875709E1
9.176172083E-1,1.988390121E1,-1.699416046E1,4.464765472E0,2.653497971E1
9.276022083E-1,1.995620087E1,-1.729922607E1,5.504653015E0,2.697803515E1
9.375872083E-1,1.953901840E1,-1.577359863E1,6.281537476E0,2.588508001E1
9.475722083E-1,1.848012039E1,-1.273177414E1,6.645131378E0,2.340450156E1
9.575572083E-1,1.710717545E1,-9.340426483E0,6.644083557E0,2.059230111E1
9.675422083E-1,1.576761108E1,-6.183341675E0,6.490502930E0,1.813774798E1
9.775272083E-1,1.441876602E1,-3.647015991E0,6.358477478E0,1.617503555E1
9.875122083E-1,1.333007996E1,-2.159110107E0,6.448440399E0,1.496446363E1
9.974972083E-1,1.252131180E1,-1.387913818E0,6.592141571E0,1.421850500E1
1.007482208E0,1.181373322E1,-1.013991394E0,6.591542816E0,1.356616776E1
1.017467208E0,1.103849533E1,-9.105564880E-1,6.259383545E0,1.272231797E1
1.027452208E0,1.011087433E1,-9.011260986E-1,5.457052002E0,1.152480909E1
1.037437208E0,9.192683716E0,-1.203647003E0,4.353097687E0,1.024224875E1
1.047422208E0,8.327632599E0,-1.656605072E0,3.273692322E0,9.100047609E0
1.057407208E0,7.689958649E0,-2.162552948E0,2.347268829E0,8.325969627E0
1.067392208E0,7.313042450E0,-2.702929230E0,1.489851837E0,7.937636600E0
1.077377208E0,7.131470032E0,-3.101999359E0,8.428971863E-1,7.822451055E0
1.087362208E0,7.191195831E0,-3.457210693E0,4.285588074E-1,7.990573566E0
1.097347208E0,7.458839264E0,-3.829187164E0,7.589218140E-2,8.384671558E0
1.107332208E0,7.821235657E0,-4.096082153E0,-2.263293457E-1,8.831808489E0
1.117317208E0,8.452622681E0,-4.166884918E0,-3.216810608E-1,9.429381677E0
1.127303208E0,9.164093170E0,-4.353846130E0,-1.249900818E-1,1.014653647E1
1.137288208E0,9.969867554E0,-4.758454742E0,4.168830872E-1,1.105508671E1
1.147273208E0,1.071232361E1,-5.188061371E0,1.089883575E0,1.195230957E1
1.157258208E0,1.118608841E1,-5.523513794E0,1.560804291E0,1.257274388E1
1.167243208E0,1.141466309E1,-5.779481506E0,2.088606720E0,1.296376557E1
1.177228208E0,1.139445511E1,-5.802832947E0,2.709964600E0,1.307097493E1
1.187213208E0,1.128563141E1,-5.664670258E0,3.084485779E0,1.299876986E1
1.197198208E0,1.120749390E1,-5.684279480E0,3.201991425E0,1.296810324E1
1.207183208E0,1.101634140E1,-5.864504700E0,3.326233063E0,1.291572761E1
1.217168208E0,1.071546707E1,-6.103707275E0,3.497776337E0,1.281838197E1
1.227153208E0,1.043180695E1,-6.353986816E0,3.661535797E0,1.275157202E1
1.237138208E0,1.016296600E1,-6.687193909E0,3.800596619E0,1.274554726E1
1.247123208E0,9.874216461E0,-7.008276215E0,3.741319885E0,1.267334055E1
1.257108208E0,9.569599915E0,-7.340136108E0,3.629801788E0,1.259485219E1
1.267093208E0,9.338031464E0,-7.628735962E0,3.467539215E0,1.254672356E1
1.277078208E0,9.154962158E0,-7.965236206E0,3.335663452E0,1.258510908E1
1.287063208E0,8.786727905E0,-8.264613647E0,3.214864655E0,1.248382076E1
1.297048208E0,8.444240112E0,-8.481063538E0,3.051254883E0,1.235086176E1
1.307033208E0,8.142767029E0,-8.622369690E0,2.943928070E0,1.221951826E1
1.317018208E0,7.792645111E0,-8.568930817E0,2.884950714E0,1.193628224E1
1.327003208E0,7.456893311E0,-8.391849060E0,2.727777557E0,1.155288531E1
1.336989083E0,7.169341278E0,-8.236023102E0,2.469414825E0,1.119506769E1
1.346974083E0,6.917714539E0,-8.074059906E0,2.153421936E0,1.084815394E1
1.356959083E0,6.775959320E0,-7.932154999E0,1.908082123E0,1.060535172E1
1.366944083E0,6.677314453E0,-7.823780365E0,1.789678345E0,1.044035517E1
1.376929083E0,6.665638733E0,-7.786507874E0,1.699865112E0,1.038989827E1
1.386914083E0,6.755451965E0,-7.853568420E0,1.646575928E0,1.048932221E1
1.396899083E0,6.888375549E0,-8.061036987E0,1.511556702E0,1.071050133E1
1.406884083E0,6.926995239E0,-8.199349365E0,1.311572571E0,1.081354778E1
1.416869083E0,7.012766876E0,-8.308023376E0,1.083746338E0,1.092596256E1
1.426854083E0,7.183262329E0,-8.484356689E0,9.051676941E-1,1.115360456E1
1.436839083E0,7.211703186E0,-8.819659424E0,7.981402588E-1,1.142068663E1
1.446824083E0,7.153474274E0,-9.211694183E0,6.902146912E-1,1.168348836E1
1.456809083E0,7.101981354E0,-9.603130188E0,6.336323547E-1,1.196075828E1
1.466794083E0,6.889722748E0,-9.744436340E0,5.593867493E-1,1.194718514E1
1.476779083E0,6.664441223E0,-9.647887115E0,5.703140259E-1,1.173975130E1
1.486764083E0,6.643035736E0,-9.569749603E0,5.933660889E-1,1.166456663E1
1.496749083E0,7.178322601E0,-1.006596771E1,1.981878662E-1,1.236492215E1
1.506734083E0,7.718249817E0,-1.112890732E1,-2.240840149E-1,1.354526382E1
1.516719083E0,7.551646271E0,-1.216325638E1,-2.697390747E-1,1.431938987E1
1.526704083E0,7.495213623E0,-1.287173309E1,-1.576222229E-1,1.489579084E1
1.536689083E0,7.360643463E0,-1.342049194E1,-1.347198486E-3,1.530649137E1
1.546674083E0,6.399342499E0,-1.398796188E1,-7.065307617E-2,1.538244629E1
1.556659083E0,5.908962250E0,-1.209754303E1,1.291663971E0,1.352533837E1
1.566644083E0,5.648952942E0,-1.039363632E1,2.399809570E0,1.207051910E1
1.576629083E0,5.140460358E0,-8.924142151E0,2.644550629E0,1.063288737E1
1.586614083E0,4.480632477E0,-7.582332458E0,2.282453613E0,9.098210121E0
1.596599083E0,3.954776001E0,-6.545438690E0,1.882185974E0,7.875636159E0
1.606584083E0,4.036506042E0,-5.560037842E0,1.569486237E0,7.047743531E0
1.616569083E0,4.442461853E0,-4.868475952E0,1.363813934E0,6.730342774E0
1.626554083E0,4.876858521E0,-4.621040497E0,1.068627777E0,6.802920669E0
1.636539083E0,5.211263123E0,-4.729115753E0,6.300398254E-1,7.065320185E0
1.646524083E0,5.375471649E0,-5.061424713E0,8.607101440E-2,7.383842076E0
1.656509083E0,5.265600128E0,-5.416935425E0,-5.478607178E-1,7.574291087E0
1.666494083E0,4.950954437E0,-5.694907379E0,-1.289718018E0,7.655539985E0
1.676479083E0,4.898862762E0,-5.946833496E0,-2.050885162E0,7.973068101E0
1.686464083E0,5.035977631E0,-6.141578522E0,-2.665507050E0,8.377647955E0
1.696449083E0,5.179229736E0,-6.120322723E0,-2.920576630E0,8.533026354E0
1.706434083E0,5.324427795E0,-6.067632294E0,-2.893932037E0,8.575577860E0
1.716419083E0,5.310207367E0,-5.980663147E0,-2.625989227E0,8.417983926E0
1.726405083E0,5.210215302E0,-5.923781433E0,-2.210902405E0,8.193022605E0
1.736390083E0,5.090164948E0,-5.903423767E0,-1.788331146E0,7.997394554E0
1.746375083E0,4.959187317E0,-6.003415833E0,-1.175505524E0,7.875046269E0
1.756360083E0,4.640500031E0,-6.058351593E0,-4.026626587E-1,7.641989386E0
1.766345083E0,4.312681732E0,-6.041287079E0,3.210823059E-1,7.429634388E0
1.776330083E0,4.150568848E0,-6.004763031E0,9.319619751E-1,7.358869067E0
1.786315083E0,4.049978027E0,-5.936504974E0,1.399888916E0,7.321482248E0
1.796300083E0,4.046535187E0,-5.863456879E0,1.678908691E0,7.319378934E0
1.806285083E0,4.172124023E0,-5.800886993E0,1.792672119E0,7.366857003E0
1.816270083E0,4.364623718E0,-5.771997070E0,1.888472900E0,7.478784679E0
1.826255083E0,4.534969482E0,-5.792055359E0,1.845961304E0,7.584288142E0
1.836240083E0,4.669090576E0,-5.750142517E0,1.754351807E0,7.611983712E0
1.846225083E0,4.854854279E0,-5.707032166E0,1.682650909E0,7.679266911E0
1.856210083E0,5.207221527E0,-5.782175903E0,1.589245148E0,7.941940213E0
1.866195083E0,5.528603210E0,-5.877976685E0,1.444346466E0,8.197694803E0
1.876180083E0,5.777984619E0,-6.008355560E0,1.279988251E0,8.433493506E0
1.886165083E0,5.913602600E0,-6.211782532E0,1.117276611E0,8.649002541E0
1.896150083E0,5.991889801E0,-6.421047363E0,1.021326141E0,8.841702309E0
1.906135083E0,6.111491089E0,-6.495442657E0,9.217831421E-1,8.966090720E0
1.916120083E0,6.380182343E0,-6.355633392E0,8.538244629E-1,9.045983570E0
1.926105083E0,6.820267181E0,-6.107748871E0,9.159452820E-1,9.201064963E0
1.936090083E0,7.323520660E0,-5.845943298E0,1.021475830E0,9.426156204E0
1.946075083E0,7.758067017E0,-5.716612244E0,1.101708984E0,9.699537209E0
1.956060083E0,8.274642792E0,-5.802832947E0,1.093925171E0,1.016559176E1
1.966045083E0,8.687184906E0,-5.844446411E0,1.134939880E0,1.053151575E1
1.976030083E0,8.968300323E0,-5.935756531E0,1.203048248E0,1.082178088E1
1.986015083E0,9.162446594E0,-6.164780273E0,1.245110779E0,1.111329133E1
1.996000083E0,9.226663055E0,-6.470444641E0,1.213825836E0,1.133451976E1
2.005985083E0,9.415121155E0,-6.843169556E0,1.225950623E0,1.170369304E1
2.015970083E0,9.589059448E0,-7.233408051E0,1.338067474E0,1.208563932E1
2.025955083E0,9.823921051E0,-7.548951874E0,1.563498688E0,1.248761896E1
2.035940083E0,1.010728180E1,-7.698341217E0,1.758992157E0,1.282636567E1
2.045925083E0,1.040022263E1,-7.799081726E0,1.914818115E0,1.313989478E1
2.055910083E0,1.064795746E1,-7.731572113E0,2.058519287E0,1.331892289E1
2.065895083E0,1.083686462E1,-7.574548645E0,2.264640656E0,1.341417233E1
2.075880083E0,1.106933121E1,-7.490722961E0,2.316133575E0,1.356486265E1
2.085865083E0,1.170700516E1,-7.732919312E0,2.099833374E0,1.418665962E1
2.095850083E0,1.248433868E1,-8.425678711E0,1.779948578E0,1.516637699E1
2.105835083E0,1.305719742E1,-9.249715118E0,1.630858612E0,1.608438168E1
2.115820083E0,1.351255051E1,-9.904752960E0,1.844763794E0,1.685515665E1
2.125805083E0,1.377839767E1,-1.021206390E1,2.251318359E0,1.729736760E1
2.135790083E0,1.373379044E1,-1.035786072E1,2.722239075E0,1.741587965E1
2.145775083E0,1.294268555E1,-9.839338989E0,3.189267883E0,1.656795493E1
2.155760083E0,1.171239395E1,-8.610095215E0,3.469634857E0,1.494497500E1
2.165745083E0,1.045919998E1,-7.150779877E0,3.690425720E0,1.319650556E1
2.175730083E0,9.383836212E0,-5.766608276E0,3.806584167E0,1.165333584E1
2.185715083E0,8.684490509E0,-4.588857422E0,3.747457123E0,1.051291695E1
2.195700083E0,8.569978638E0,-3.851341095E0,3.388054504E0,9.987806336E0
2.205685083E0,8.534652100E0,-3.492237854E0,3.027304688E0,9.705698602E0
2.215670083E0,8.349786530E0,-3.360811157E0,2.671793976E0,9.388954669E0
2.225655083E0,8.117769012E0,-3.481460266E0,2.173480225E0,9.096304503E0
2.235640083E0,7.865244141E0,-3.832630005E0,1.623823242E0,8.898759468E0
2.245625083E0,7.635471954E0,-4.291276245E0,1.100361786E0,8.827586297E0
2.255610083E0,7.486681366E0,-4.761897583E0,6.985972595E-1,8.900230592E0
2.265595083E0,7.444918213E0,-5.365592194E0,3.671864319E-1,9.184291625E0
2.275580083E0,7.497608643E0,-6.067781982E0,1.261875916E-1,9.646141034E0
2.285565083E0,7.582631836E0,-6.722670135E0,8.068222046E-2,1.013395821E1
2.295550083E0,7.687863007E0,-7.144343262E0,1.258882141E-1,1.049574800E1
2.305536083E0,7.898325348E0,-7.319029999E0,2.269281006E-1,1.077048002E1
2.315521083E0,8.248746643E0,-7.211703186E0,3.293151855E-1,1.096170299E1
2.325506083E0,8.676557007E0,-6.907535706E0,6.032455444E-1,1.110678154E1
2.335491083E0,9.047934723E0,-6.605314178E0,1.048569489E0,1.125143529E1
2.345475833E0,9.318422241E0,-6.478228455E0,1.488654327E0,1.144624518E1
2.355460833E0,9.519603882E0,-6.425238647E0,1.883982239E0,1.163855398E1
2.365445833E0,9.675579529E0,-6.316414948E0,2.271975403E0,1.177606935E1
2.375430833E0,9.654473419E0,-6.162385254E0,2.564916229E0,1.173723325E1
2.385415833E0,9.608518982E0,-6.000871124E0,2.814147949E0,1.167276831E1
2.395400833E0,9.461674347E0,-5.851032715E0,2.924767914E0,1.150270110E1
2.405385833E0,9.144184570E0,-5.761219482E0,2.808759155E0,1.116677614E1
2.415370833E0,8.748407593E0,-5.733377380E0,2.526895294E0,1.076064363E1
2.425355833E0,8.295000458E0,-5.818101196E0,2.096240845E0,1.034657237E1
2.435340833E0,7.940687256E0,-5.911207581E0,1.716929626E0,1.004712578E1
2.445325833E0,7.736212463E0,-5.989494781E0,1.474134521E0,9.894245985E0
2.455310833E0,7.580835571E0,-6.057154083E0,1.372046814E0,9.800035510E0
2.465295833E0,7.406298523E0,-6.170318756E0,1.323697357E0,9.730275744E0
2.475280833E0,7.202721863E0,-6.282285919E0,1.260977783E0,9.640351839E0
2.485265833E0,7.061715088E0,-6.412664795E0,1.296304321E0,9.626551545E0
2.495250833E0,6.848558350E0,-6.536307678E0,1.373843079E0,9.566269614E0
2.505235833E0,6.636748810E0,-6.662495270E0,1.425186310E0,9.511384442E0
2.515220833E0,6.405629425E0,-6.734196167E0,1.408421173E0,9.400273217E0
2.525205833E0,6.229445801E0,-6.784641266E0,1.439855804E0,9.322582090E0
2.535190833E0,6.006559296E0,-6.863527222E0,1.538500671E0,9.249526734E0
2.545175833E0,5.730682983E0,-6.939419403E0,1.670077057E0,9.153437960E0
2.555160833E0,5.560187531E0,-6.961872711E0,1.769919434E0,9.083830240E0
2.565145833E0,5.434299316E0,-6.951544189E0,1.851350098E0,9.015712554E0
2.575130833E0,5.412744141E0,-7.004084930E0,1.850302277E0,9.043153397E0
2.585115833E0,5.410947876E0,-7.148983612E0,1.772913208E0,9.139449920E0
2.595100833E0,5.352269897E0,-7.251520386E0,1.650916901E0,9.162798021E0
2.605085833E0,5.464686127E0,-7.382647705E0,1.507664795E0,9.308025287E0
2.615070833E0,5.757177887E0,-7.671846313E0,1.442849579E0,9.699697830E0
2.625055833E0,6.086044006E0,-8.013885040E0,1.463057556E0,1.016871784E1
2.635040833E0,6.481671295E0,-8.192613373E0,1.481020203E0,1.055103774E1
2.645025833E0,6.882687378E0,-8.359216919E0,1.521885223E0,1.093453372E1
2.655010833E0,7.210655365E0,-8.425828400E0,1.541344757E0,1.119660121E1
2.664995833E0,7.458390198E0,-8.352331238E0,1.487606506E0,1.129610528E1
2.674980833E0,8.074209595E0,-8.459059296E0,1.283281403E0,1.176415555E1
2.684965833E0,8.962462463E0,-9.078920288E0,1.002315674E0,1.279676380E1
2.694950833E0,9.384734344E0,-9.994117126E0,9.273216248E-1,1.374101675E1
2.704935833E0,9.347461853E0,-1.076246933E1,9.984237671E-1,1.428994889E1
2.714920833E0,9.188043365E0,-1.124955643E1,1.191671906E0,1.457370038E1
2.724905833E0,8.957373047E0,-1.144609772E1,1.564696198E0,1.461834324E1
2.734890833E0,8.577313385E0,-1.119042938E1,1.974094849E0,1.423703147E1
2.744875833E0,7.871531067E0,-1.044857208E1,2.224374390E0,1.326957050E1
2.754860833E0,7.238048401E0,-9.363777924E0,2.254461823E0,1.204791599E1
2.764845833E0,6.897805939E0,-8.043972473E0,2.286944275E0,1.084044898E1
2.774830833E0,6.594536591E0,-6.608607330E0,2.472558289E0,9.657905994E0
2.784815833E0,6.308930511E0,-5.274132385E0,2.586172028E0,8.620171830E0
2.794800833E0,6.275998993E0,-4.249962158E0,2.534230042E0,7.992037513E0
2.804785833E0,6.360124054E0,-3.620670776E0,2.289339294E0,7.668214216E0
2.814770833E0,6.510411530E0,-3.407064972E0,1.862876129E0,7.580491902E0
2.824755833E0,6.721023560E0,-3.433559875E0,1.296154633E0,7.657774346E0
2.834740833E0,6.763385468E0,-3.591032410E0,5.906716919E-1,7.680350890E0
2.844725833E0,6.790778503E0,-3.891307983E0,-1.413061523E-1,7.827957456E0
2.854710833E0,6.763535156E0,-4.320465546E0,-8.345146179E-1,8.068968025E0
2.864695833E0,6.628964996E0,-4.705614624E0,-1.423539734E0,8.253026795E0
2.874680833E0,6.546636200E0,-4.977748718E0,-1.957629089E0,8.453918588E0
2.884666833E0,6.509962463E0,-5.147346039E0,-2.333347778E0,8.620863899E0
2.894651833E0,6.451434174E0,-5.255271606E0,-2.613565063E0,8.721789088E0
2.904636833E0,6.324348450E0,-5.400469666E0,-2.665956116E0,8.733257006E0
2.914621833E0,6.111790466E0,-5.590574341E0,-2.544857941E0,8.665148937E0
2.924606833E0,5.809119873E0,-5.869145050E0,-2.229763184E0,8.553629707E0
2.934591833E0,5.442831573E0,-6.223907318E0,-1.639241180E0,8.429030163E0
2.944576833E0,5.149291992E0,-6.573879547E0,-9.535171509E-1,8.404778122E0
2.954561833E0,4.845274200E0,-6.937922516E0,-2.016307068E-1,8.464756692E0
2.964546833E0,4.450545044E0,-7.198829956E0,6.283932495E-1,8.486776891E0
2.974531833E0,4.026626587E0,-7.197931824E0,1.477277985E0,8.378919647E0
2.984516833E0,3.768413544E0,-6.991361389E0,2.110760651E0,8.217991557E0
2.994501833E0,3.738176422E0,-6.684649200E0,2.479893036E0,8.050364424E0
3.004486833E0,3.850143585E0,-6.423292694E0,2.681673431E0,7.954474656E0
3.014471833E0,4.013753357E0,-6.186185760E0,2.833906860E0,7.900008757E0
3.024456833E0,4.218976593E0,-6.010451202E0,2.886597290E0,7.890356840E0
3.034441833E0,4.449497223E0,-5.936055908E0,2.793191528E0,7.926960590E0
3.044426833E0,4.729115753E0,-5.948929138E0,2.608924713E0,8.034972424E0
3.054411833E0,5.040917358E0,-5.942941589E0,2.227068787E0,8.104889754E0
3.064396833E0,5.340444489E0,-5.977070618E0,1.794468384E0,8.213759023E0
3.074381833E0,5.664819946E0,-6.051316223E0,1.372346191E0,8.401901399E0
3.084366833E0,5.924080811E0,-6.076912994E0,9.590556335E-1,8.540690411E0
3.094351833E0,6.211932220E0,-6.017187195E0,6.231541443E-1,8.670811077E0
3.104336833E0,6.572232971E0,-5.965843964E0,3.406915283E-1,8.882657887E0
3.114321833E0,6.816824341E0,-5.808970184E0,1.172062683E-1,8.956950709E0
3.124306833E0,7.034771118E0,-5.616021423E0,-6.676116943E-2,9.001786399E0
3.134291833E0,7.283703461E0,-5.425467682E0,-1.685494995E-1,9.083856263E0
3.144276833E0,7.513625336E0,-5.307213593E0,-2.775228882E-1,9.203157108E0
3.154261833E0,7.819140015E0,-5.268893280E0,-3.219804382E-1,9.434185623E0
3.164246833E0,8.045169983E0,-5.267246704E0,-2.809657288E-1,9.620165780E0
3.174231833E0,8.118667145E0,-5.411396942E0,-1.788780212E-1,9.758481973E0
3.184216833E0,8.193810883E0,-5.685926056E0,-1.440005493E-1,9.974418682E0
3.194201833E0,8.308622131E0,-6.105952606E0,-3.323089600E-2,1.031101175E1
3.204186833E0,8.445287933E0,-6.553970947E0,1.868115234E-1,1.069169407E1
3.214171833E0,8.603059845E0,-6.969057770E0,5.017565918E-1,1.108296732E1
3.224156833E0,8.781937866E0,-7.354356537E0,8.869056702E-1,1.148893356E1
3.234141833E0,9.012608185E0,-7.698939972E0,1.215173035E0,1.191542817E1
3.244126833E0,9.319320374E0,-8.032296753E0,1.567689972E0,1.240262775E1
3.254111833E0,9.654024353E0,-8.308921509E0,1.884730682E0,1.287596880E1
3.264096833E0,1.004216721E1,-8.453371124E0,2.156116333E0,1.330238487E1
3.274081833E0,1.052760773E1,-8.591533813E0,2.259551239E0,1.377499726E1
3.284066833E0,1.118414246E1,-8.853788452E0,2.206711121E0,1.443413269E1
3.294051833E0,1.189830734E1,-9.202712860E0,2.061363373E0,1.518251825E1
3.304036833E0,1.277712982E1,-9.654623108E0,1.920506287E0,1.612932541E1
3.314021833E0,1.342228821E1,-9.911039886E0,2.008523254E0,1.680537706E1
3.324006833E0,1.356179810E1,-1.002121078E1,2.183808746E0,1.700341301E1
3.333991833E0,1.330972229E1,-9.850415955E0,2.416724396E0,1.673379690E1
3.343976875E0,1.271620651E1,-9.422755280E0,2.686014404E0,1.605318967E1
3.353961875E0,1.171059769E1,-8.551866302E0,3.006048889E0,1.480907983E1
3.363946875E0,1.062939606E1,-7.278015289E0,3.381318512E0,1.331866667E1
3.373931875E0,9.830357666E0,-5.956563263E0,3.652704163E0,1.206063122E1
3.383916875E0,9.292675781E0,-4.865332489E0,3.623664551E0,1.109757758E1
3.393901875E0,8.864715729E0,-3.998335419E0,3.613485718E0,1.037435059E1
3.403886875E0,8.507857819E0,-3.399879913E0,3.560645599E0,9.829599441E0
3.413871875E0,8.207731934E0,-3.127745819E0,3.156785431E0,9.333539075E0
3.423856875E0,7.887996826E0,-3.222798157E0,2.541864166E0,8.892018631E0
3.433841875E0,7.584428101E0,-3.453767853E0,1.788031769E0,8.523445289E0
3.443826875E0,7.402705994E0,-3.762425995E0,1.065933380E0,8.372103640E0
3.453811875E0,7.276668091E0,-4.141288147E0,4.312532043E-1,8.383683280E0
3.463797875E0,7.198530579E0,-4.635560303E0,-3.263214111E-2,8.562028187E0
3.473782875E0,7.282505951E0,-5.253475342E0,-3.683839417E-1,8.987191042E0
3.483766875E0,7.429200897E0,-5.956563263E0,-5.873785400E-1,9.540371346E0
3.493752875E0,7.540569305E0,-6.556815033E0,-6.474037170E-1,1.001354784E1
3.503737875E0,7.720195770E0,-6.949298859E0,-5.571414185E-1,1.040214324E1
3.513722875E0,7.950417023E0,-7.147037659E0,-4.417314148E-1,1.069973854E1
3.523707875E0,8.350534973E0,-7.142097931E0,-1.401086426E-1,1.098911405E1
3.533692875E0,8.774303741E0,-6.947652283E0,4.173321533E-1,1.119966270E1
3.543677875E0,8.915011139E0,-6.832691345E0,1.016386414E0,1.127812644E1
3.553662875E0,9.031918030E0,-6.895261230E0,1.571881256E0,1.147131123E1
3.563647875E0,9.059760132E0,-6.894363098E0,2.216141510E0,1.159839555E1
3.573632875E0,8.993448029E0,-6.756350098E0,2.928210754E0,1.162345871E1
3.583617875E0,8.928034058E0,-6.659351807E0,3.463796997E0,1.166424658E1
3.593602875E0,8.829538879E0,-6.585555267E0,3.854484558E0,1.166993343E1
3.603587875E0,8.633746033E0,-6.478677521E0,4.129462738E0,1.155713180E1
3.613572875E0,8.370144196E0,-6.410419464E0,4.206103363E0,1.135095137E1
3.623557875E0,8.034691772E0,-6.369105377E0,4.067192230E0,1.103013272E1
3.633542875E0,7.691904602E0,-6.352938995E0,3.742667084E0,1.065517654E1
3.643527875E0,7.366481323E0,-6.395899658E0,3.357518005E0,1.031724317E1
3.653512875E0,7.031927032E0,-6.478976898E0,2.966680756E0,1.001131031E1
3.663497875E0,6.757248230E0,-6.537804565E0,2.649190979E0,9.768393165E0
3.673482875E0,6.596482544E0,-6.600224762E0,2.467917938E0,9.652314117E0
3.683467875E0,6.483766937E0,-6.738537140E0,2.354304199E0,9.643125258E0
3.693452875E0,6.348148956E0,-6.953789520E0,2.178120575E0,9.664284407E0
3.703437875E0,6.272256775E0,-7.138954468E0,2.018702087E0,9.714990173E0
3.713422875E0,6.145320740E0,-7.256160736E0,1.872007141E0,9.691297455E0
3.723407875E0,6.042933655E0,-7.297923889E0,1.765877838E0,9.638208588E0
3.733392875E0,5.944438477E0,-7.280709686E0,1.581161957E0,9.531272500E0
3.743377875E0,5.891598358E0,-7.256310425E0,1.377585297E0,9.447894657E0
3.753362875E0,5.898783417E0,-7.189399567E0,1.250200195E0,9.383289000E0
3.763347875E0,5.922583923E0,-7.097939758E0,1.145717468E0,9.315064018E0
3.773332875E0,6.042933655E0,-6.965764618E0,1.078507233E0,9.284508696E0
3.783317875E0,6.322402496E0,-6.858288116E0,1.094224548E0,9.391816468E0
3.793302875E0,6.598877563E0,-6.946155396E0,1.204694824E0,9.656373517E0
3.803287875E0,6.823560333E0,-7.167095947E0,1.222358093E0,9.971078139E0
3.813272875E0,7.152426453E0,-7.382198639E0,1.227447510E0,1.035184468E1
3.823257875E0,7.385342102E0,-7.613916779E0,1.169517975E0,1.067158746E1
3.833242875E0,7.770790558E0,-7.988587646E0,1.029708710E0,1.119209625E1
3.843227875E0,8.049061890E0,-8.367300110E0,1.068328400E0,1.165934964E1
3.853212875E0,7.945926361E0,-8.678203583E0,1.190474396E0,1.182650381E1
3.863197875E0,7.862400055E0,-8.962911530E0,1.164578247E0,1.197945576E1
3.873182875E0,8.251441040E0,-9.348210297E0,9.363029480E-1,1.250407846E1
3.883167875E0,8.841963043E0,-1.008692413E1,6.122268677E-1,1.342762714E1
3.893152875E0,9.272318115E0,-1.103235809E1,4.534071350E-1,1.441854314E1
3.903137875E0,9.239985352E0,-1.172781189E1,7.075785828E-1,1.494722611E1
3.913122875E0,8.491092682E0,-1.186313049E1,1.196761322E0,1.463778527E1
3.923107875E0,7.453001404E0,-1.160955780E1,1.814826050E0,1.391483582E1
3.933092875E0,6.458768921E0,-1.103415436E1,2.620301056E0,1.305121588E1
3.943077875E0,5.317991180E0,-1.014679962E1,3.332819366E0,1.193089509E1
3.953062875E0,4.073179779E0,-8.986712036E0,3.812122650E0,1.057752645E1
3.963047875E0,3.051703949E0,-7.683522034E0,3.997137909E0,9.182947201E0
3.973032875E0,2.572849731E0,-6.465205536E0,3.824397125E0,7.940053635E0
3.983017875E0,2.463726654E0,-5.579796753E0,3.434158630E0,6.999823307E0
3.993002875E0,2.633323975E0,-5.015470276E0,2.915487213E0,6.370981316E0
4.002987875E0,3.030298462E0,-4.666545868E0,2.194286957E0,5.981158279E0
4.012972875E0,3.581901398E0,-4.569996643E0,1.274449768E0,5.944670651E0
4.022957875E0,4.177662506E0,-4.596641235E0,2.978805542E-1,6.218577610E0
4.032942875E0,4.774621124E0,-4.714296570E0,-5.864804077E-1,6.735395927E0
4.042928875E0,5.047803040E0,-4.903353424E0,-1.416953430E0,7.178505927E0
4.052913875E0,5.217400360E0,-5.047054596E0,-2.302062836E0,7.615347655E0
4.062898875E0,5.590574341E0,-5.211412811E0,-3.156635742E0,8.269080611E0
4.072883875E0,5.860163727E0,-5.332660675E0,-3.665128326E0,8.729945843E0
4.082868875E0,6.088588715E0,-5.459596710E0,-3.787573700E0,9.012426050E0
4.092853875E0,6.306535492E0,-5.656587067E0,-3.518583069E0,9.173319681E0
4.102838875E0,6.375392303E0,-6.021977234E0,-2.929108887E0,9.246054061E0
4.112823875E0,6.384972382E0,-6.491251373E0,-1.995799713E0,9.321342886E0
4.122808875E0,6.227799225E0,-6.913074188E0,-9.933343506E-1,9.357499188E0
4.132793875E0,6.124663696E0,-7.318880310E0,1.095721436E-1,9.544083007E0
4.142778875E0,5.912255402E0,-7.592361603E0,1.278341675E0,9.707361953E0
4.152763875E0,5.524112549E0,-7.639363861E0,2.358794861E0,9.718004571E0
4.162748875E0,5.247338104E0,-7.462431793E0,3.169958038E0,9.657695347E0
4.172733875E0,5.040019226E0,-7.151378632E0,3.715723114E0,9.505293704E0
4.182718875E0,4.952750702E0,-6.829398193E0,3.999682617E0,9.336374041E0
4.192703875E0,4.967270508E0,-6.600374451E0,4.078269196E0,9.212545730E0
4.202688875E0,5.084925842E0,-6.438860321E0,3.919599152E0,9.092780134E0
4.212673875E0,5.143753510E0,-6.373146973E0,3.477718048E0,8.897737090E0
4.222658875E0,5.152884521E0,-6.366710358E0,2.734513550E0,8.635090273E0
4.232643875E0,5.303171997E0,-6.350394287E0,1.962119751E0,8.503002690E0
4.242628875E0,5.541177063E0,-6.363566895E0,1.327738953E0,8.541809972E0
4.252613875E0,5.713768158E0,-6.395151215E0,8.666976929E-1,8.619528439E0
4.262598875E0,5.927972717E0,-6.487958221E0,4.158352661E-1,8.798146475E0
4.272583875E0,6.198310547E0,-6.500532074E0,4.460723877E-2,8.982091109E0
4.282568875E0,6.451733551E0,-6.489754486E0,-2.656974792E-1,9.154909844E0
4.292553875E0,6.732250214E0,-6.436315613E0,-4.799020386E-1,9.326288521E0
4.302538875E0,7.010820923E0,-6.298601990E0,-4.822970581E-1,9.436980846E0
4.312523875E0,7.173532562E0,-6.167175293E0,-4.602928162E-1,9.471298221E0
4.322508875E0,7.295528870E0,-6.113886108E0,-4.757107544E-1,9.530511296E0
4.332493875E0,7.417076111E0,-6.057154083E0,-4.161346436E-1,9.585160492E0
4.342478708E0,7.561675415E0,-6.023773499E0,-2.752775574E-1,9.671636882E0
4.352463708E0,7.659122772E0,-5.989195404E0,2.305206299E-2,9.722816188E0
4.362448708E0,7.783065033E0,-6.012247467E0,3.448828125E-1,9.840841685E0
4.372433708E0,7.985593872E0,-6.114335175E0,6.131250000E-1,1.007624565E1
4.382418708E0,8.135581970E0,-6.266718292E0,8.196954346E-1,1.030200722E1
4.392403708E0,8.360264740E0,-6.469696198E0,9.921368408E-1,1.061768953E1
4.402388708E0,8.583750000E0,-6.650220795E0,1.102607117E0,1.091429994E1
4.412373708E0,8.724906464E0,-6.814728699E0,1.135538635E0,1.112896976E1
4.422358708E0,8.915909271E0,-6.971901855E0,1.127605133E0,1.137419654E1
4.432343708E0,9.089697876E0,-7.142546997E0,1.096469879E0,1.161209849E1
4.442328708E0,9.295669556E0,-7.314689026E0,1.118025055E0,1.188125111E1
4.452313708E0,9.574389954E0,-7.440577240E0,1.119222565E0,1.217718325E1
4.462298708E0,9.842482452E0,-7.512876892E0,1.131646729E0,1.243376067E1
4.472283708E0,1.012419662E1,-7.656877441E0,1.097218323E0,1.274091902E1
4.482268708E0,1.053958282E1,-7.868986359E0,9.494755554E-1,1.318731422E1
4.492253708E0,1.122665405E1,-8.370443573E0,7.387138367E-1,1.402311609E1
4.502238708E0,1.188558380E1,-9.025780792E0,6.071374512E-1,1.493654703E1
4.512223708E0,1.242326569E1,-9.718390503E0,7.429051208E-1,1.579039430E1
4.522208708E0,1.275587402E1,-1.026535309E1,1.034648438E0,1.640610537E1
4.532193708E0,1.270333328E1,-1.053209839E1,1.533560944E0,1.657261543E1
4.542178708E0,1.240395584E1,-1.054616913E1,2.107766876E0,1.641713998E1
4.552163708E0,1.170984924E1,-1.012329849E1,2.635269928E0,1.570179573E1
4.562148708E0,1.082339264E1,-9.089847565E0,3.154839478E0,1.448185655E1
4.572133708E0,9.786349182E0,-7.617209930E0,3.640130310E0,1.292459153E1
4.582118708E0,8.963360596E0,-6.299799500E0,3.776796112E0,1.158850706E1
4.592103708E0,8.606951752E0,-5.213358765E0,3.633094940E0,1.069850956E1
4.602088708E0,8.277486877E0,-4.393214264E0,3.334316254E0,9.946596677E0
4.612074708E0,8.097561035E0,-3.891906738E0,2.878214722E0,9.434063428E0
4.622059708E0,7.984246674E0,-3.823948059E0,2.255060577E0,9.135429487E0
4.632044708E0,7.674241333E0,-4.000880127E0,1.504221954E0,8.784287422E0
4.642029708E0,7.481142883E0,-4.324058075E0,6.899153137E-1,8.668388559E0
4.652014708E0,7.301516418E0,-4.802313538E0,-3.233276367E-2,8.739302188E0
4.661999708E0,7.123386841E0,-5.328020325E0,-6.935078430E-1,8.922521717E0
4.671984708E0,7.150031433E0,-6.113736420E0,-1.218316498E0,9.486043305E0
4.681969708E0,7.245981903E0,-7.022346954E0,-1.480870514E0,1.019855813E1
4.691954708E0,7.219337311E0,-7.857610016E0,-1.376238098E0,1.075894501E1
4.701939708E0,7.140750732E0,-8.447383575E0,-1.005309448E0,1.110672127E1
4.711924708E0,7.070696411E0,-8.711883545E0,-5.078938293E-1,1.123163473E1
4.721909708E0,7.086413727E0,-8.712332611E0,-2.185455322E-2,1.123042638E1
4.731894708E0,7.327113190E0,-8.541238403E0,4.481680298E-1,1.126233527E1
4.741879708E0,7.744894409E0,-8.290509796E0,9.518705750E-1,1.138516577E1
4.751864708E0,7.885302429E0,-7.991282043E0,1.618135071E0,1.134270445E1
4.761849708E0,7.998018036E0,-7.742349701E0,2.057022400E0,1.132005356E1
4.771834708E0,8.147557068E0,-7.504045258E0,2.426005096E0,1.133926286E1
4.781819708E0,8.157586212E0,-7.237449646E0,2.833457794E0,1.126744750E1
4.791804708E0,8.173602905E0,-6.939569092E0,3.172951813E0,1.118181680E1
4.801789708E0,8.173453217E0,-6.699468384E0,3.412304077E0,1.110549563E1
4.811774708E0,8.089926910E0,-6.578519897E0,3.465443573E0,1.098786333E1
4.821759708E0,7.987090759E0,-6.481671295E0,3.377276917E0,1.082643436E1
4.831744708E0,7.850424957E0,-6.433172150E0,3.220253448E0,1.064823498E1
4.841729708E0,7.625742188E0,-6.487359467E0,2.952160950E0,1.043805686E1
4.851714708E0,7.335196381E0,-6.628366241E0,2.621348877E0,1.022799173E1
4.861699708E0,7.048243103E0,-6.737788696E0,2.324815521E0,1.002398596E1
4.871684708E0,6.813231812E0,-6.756200409E0,2.081571350E0,9.818315078E0
4.881669708E0,6.640640717E0,-6.725963287E0,1.929786987E0,9.646800977E0
4.891654708E0,6.541546783E0,-6.752607880E0,1.813179474E0,9.574819440E0
4.901639708E0,6.433172150E0,-6.848258972E0,1.789378967E0,9.564843540E0
4.911624708E0,6.244414673E0,-6.939569092E0,1.775457916E0,9.502767207E0
4.921609708E0,6.112089844E0,-6.911277924E0,1.711840210E0,9.383698722E0
4.931594708E0,5.987997894E0,-6.809040527E0,1.673070831E0,9.220537820E0
4.941579708E0,5.882766724E0,-6.731501770E0,1.575922852E0,9.077642493E0
4.951564708E0,5.797444153E0,-6.640491028E0,1.397044830E0,8.925145044E0
4.961549708E0,5.691614227E0,-6.697971497E0,1.253792725E0,8.878586086E0
4.971534708E0,5.489384766E0,-6.825955353E0,1.230590973E0,8.845414955E0
4.981519708E0,5.305117950E0,-6.888525238E0,1.251098328E0,8.784150696E0
4.991504708E0,5.225782928E0,-6.935976563E0,1.268162842E0,8.776378244E0
5.001489708E0,5.196443939E0,-7.060816956E0,1.303190002E0,8.863208780E0
5.011474708E0,5.228776703E0,-7.243287506E0,1.264270935E0,9.022399941E0
5.021459708E0,5.294340363E0,-7.500303040E0,1.271605682E0,9.268309801E0
5.031444708E0,5.326523438E0,-7.736212463E0,1.312770081E0,9.483891632E0
5.041429708E0,5.281616821E0,-7.912695465E0,1.314716034E0,9.603890046E0
5.051414708E0,5.266348572E0,-8.044720917E0,1.363664246E0,9.711412981E0
5.061399708E0,5.296585693E0,-8.089477844E0,1.432820435E0,9.774786248E0
5.071384708E0,5.398673401E0,-8.048163757E0,1.469344482E0,9.801917545E0
5.081369708E0,5.880222015E0,-8.148155823E0,1.267264709E0,1.012795212E1
5.091354708E0,6.565197601E0,-8.677604828E0,8.638536072E-1,1.091553426E1
5.101339708E0,6.919211426E0,-9.328750763E0,7.909552002E-1,1.164159300E1
5.111324708E0,7.138355713E0,-9.766590271E0,9.288185120E-1,1.213281137E1
5.121309708E0,7.212152252E0,-1.001327728E1,1.159638519E0,1.239458041E1
5.131294708E0,7.098538513E0,-9.954599304E0,1.450483704E0,1.231207535E1
5.141279708E0,6.720574493E0,-9.632319489E0,1.786534882E0,1.188021074E1
5.151264708E0,6.274651794E0,-9.046288147E0,2.115251312E0,1.121074808E1
5.161250708E0,5.829477539E0,-8.145910492E0,2.387086029E0,1.029741938E1
5.171235708E0,5.557493134E0,-7.069049835E0,2.543061676E0,9.344750301E0
5.181220708E0,5.544619904E0,-5.893843689E0,2.584525452E0,8.494702768E0
5.191205708E0,5.597759399E0,-4.807702332E0,2.619253235E0,7.830031897E0
5.201190708E0,5.695655823E0,-4.074377289E0,2.617606659E0,7.476156109E0
5.211175708E0,5.957611084E0,-3.707340546E0,2.387684784E0,7.412053857E0
5.221160708E0,6.296656036E0,-3.528163147E0,2.074535980E0,7.509960850E0
5.231145708E0,6.581663361E0,-3.588038635E0,1.625769196E0,7.670426280E0
5.241130708E0,6.839127960E0,-3.936513977E0,1.085542603E0,7.965438864E0
5.251115708E0,6.993157654E0,-4.457430725E0,5.098397827E-1,8.308602725E0
5.261100708E0,7.233557739E0,-5.087470551E0,-8.981323242E-2,8.843912063E0
5.271085708E0,7.642058258E0,-5.777685242E0,-6.111790466E-1,9.599804217E0
5.281070708E0,7.880662079E0,-6.425987091E0,-9.497749329E-1,1.021274778E1
5.291055708E0,7.907306671E0,-6.847510529E0,-1.211281128E0,1.053000955E1
5.301040708E0,7.803123322E0,-7.032825165E0,-1.436113586E0,1.060244244E1
5.311025708E0,7.638765106E0,-7.056326294E0,-1.582359467E0,1.051885614E1
5.321010708E0,7.477250977E0,-7.029831390E0,-1.529968414E0,1.037634882E1
5.330995708E0,7.438481598E0,-6.899602203E0,-1.244512024E0,1.022175764E1
5.340981958E0,7.370373230E0,-6.686295776E0,-5.962101746E-1,9.969173453E0
5.350966958E0,7.233557739E0,-6.462810516E0,2.815644836E-1,9.704203002E0
5.360951958E0,7.044650574E0,-6.396049347E0,1.116079102E0,9.580301744E0
5.370936958E0,6.930438080E0,-6.327042847E0,1.765279083E0,9.548751405E0
5.380921958E0,6.836583252E0,-6.282136230E0,2.296075287E0,9.564312202E0
5.390906958E0,6.744973755E0,-6.173611908E0,2.804867249E0,9.564279127E0
5.400891958E0,6.729855194E0,-6.105802917E0,3.168311462E0,9.623407802E0
5.410876958E0,6.743776245E0,-6.062991943E0,3.335214386E0,9.662403653E0
5.420861958E0,6.732699280E0,-6.060147858E0,3.247347107E0,9.622883917E0
5.430846958E0,6.584058380E0,-6.079757080E0,2.788401489E0,9.385544937E0
5.440831958E0,6.467899933E0,-6.114484863E0,2.059417419E0,9.135745990E0
5.450816958E0,6.486910400E0,-6.138285370E0,1.460812225E0,9.049448944E0
5.460801958E0,6.577472076E0,-6.051914978E0,1.110690308E0,9.006800030E0
5.470786958E0,6.673572235E0,-6.002517700E0,8.825646973E-1,9.019185416E0
5.480771958E0,6.863527222E0,-5.966143341E0,7.140151978E-1,9.122098990E0
5.490756958E0,7.073390808E0,-5.882916412E0,5.888754272E-1,9.218911937E0
5.500741958E0,7.249125366E0,-5.811814270E0,5.519023132E-1,9.307609782E0
5.510726958E0,7.466623077E0,-5.739664307E0,5.057981873E-1,9.431332798E0
5.520711958E0,7.647297363E0,-5.660778351E0,4.544549561E-1,9.525339774E0
5.530696958E0,7.833809509E0,-5.553152161E0,3.474275208E-1,9.608682336E0
5.540681958E0,7.974367218E0,-5.473966827E0,1.972897339E-1,9.674387246E0
5.550666958E0,8.049211578E0,-5.455106049E0,1.381626892E-1,9.724560554E0
5.560651958E0,8.063881073E0,-5.529351654E0,1.775308228E-1,9.779132112E0
5.570636958E0,8.040679321E0,-5.671106873E0,3.183879089E-1,9.844559308E0
5.580621958E0,8.122858429E0,-5.908662872E0,5.867797852E-1,1.006168159E1
5.590606958E0,8.225245514E0,-6.103707275E0,8.391549683E-1,1.027687148E1
5.600591958E0,8.409961395E0,-6.254443817E0,1.047371979E0,1.053292486E1
5.610576958E0,8.646918640E0,-6.419999542E0,1.272503815E0,1.084457754E1
5.620561958E0,8.850345612E0,-6.632258148E0,1.500330048E0,1.116093436E1
5.630546958E0,9.091045074E0,-6.815327454E0,1.668729858E0,1.148392129E1
5.640531958E0,9.349108429E0,-6.997947693E0,1.786834259E0,1.181396957E1
5.650516958E0,9.645043030E0,-7.152426453E0,1.913620605E0,1.215919418E1
5.660502958E0,9.923314362E0,-7.319179688E0,2.129022675E0,1.251300511E1
5.670487958E0,1.021999741E1,-7.422015839E0,2.198478241E0,1.282060734E1
5.680472958E0,1.077938416E1,-7.551346893E0,2.127226410E0,1.333203116E1
5.690457958E0,1.153621033E1,-7.917635193E0,1.942360840E0,1.412607027E1
5.700442958E0,1.227567261E1,-8.559201050E0,1.706601105E0,1.506202337E1
5.710427958E0,1.286290146E1,-9.238039398E0,1.626068573E0,1.591978972E1
5.720412958E0,1.278027328E1,-9.665700073E0,1.777104492E0,1.612201115E1
5.730397958E0,1.230935257E1,-9.801318054E0,2.011517029E0,1.586291893E1
5.740382958E0,1.156420212E1,-9.547595673E0,2.284100189E0,1.516919469E1
5.750367958E0,1.071082672E1,-8.744216309E0,2.577041016E0,1.406500154E1
5.760352958E0,9.913285217E0,-7.736212463E0,2.841990051E0,1.289182355E1
5.770337958E0,8.923094330E0,-6.815327454E0,3.074606323E0,1.164145630E1
5.780322958E0,8.255033569E0,-5.901926880E0,3.134481812E0,1.062088962E1
5.790307958E0,7.799830170E0,-5.035378876E0,3.152893524E0,9.804750312E0
5.800292958E0,7.487579498E0,-4.491709442E0,3.042572937E0,9.246434477E0
5.810277958E0,7.299869843E0,-4.280798035E0,2.706521759E0,8.884739251E0
5.820262958E0,7.222929840E0,-4.287983093E0,2.235451355E0,8.692223953E0
5.830247958E0,7.215146027E0,-4.405488739E0,1.632205811E0,8.609922126E0
5.840232958E0,7.125931549E0,-4.586911469E0,1.005459137E0,8.534026326E0
5.850217958E0,7.132817230E0,-4.937332764E0,4.652325439E-1,8.687391886E0
5.860202958E0,7.186106415E0,-5.455255737E0,-3.293151855E-2,9.022251662E0
5.870187958E0,7.258555756E0,-6.065836029E0,-4.930746460E-1,9.472281721E0
5.880172958E0,7.372768250E0,-6.674919434E0,-7.676037598E-1,9.975042689E0
5.890157958E0,7.514972534E0,-7.191345520E0,-8.096662903E-1,1.043292011E1
5.900142958E0,7.687264252E0,-7.535629578E0,-7.197033691E-1,1.078877740E1
5.910127958E0,7.879913635E0,-7.704029388E0,-5.665718079E-1,1.103476830E1
5.920112958E0,8.143515472E0,-7.673492889E0,-2.174977112E-1,1.119136465E1
5.930097958E0,8.453969879E0,-7.481142883E0,3.553610229E-1,1.129439627E1
5.940082958E0,8.644373932E0,-7.420219574E0,9.816586304E-1,1.143453160E1
5.950067958E0,8.717721405E0,-7.463928680E0,1.564097443E0,1.158254284E1
5.960052958E0,8.821455688E0,-7.401807861E0,2.074985046E0,1.170087189E1
5.970037958E0,8.784482574E0,-7.238796844E0,2.579735413E0,1.167143302E1
5.980022958E0,8.717422028E0,-7.061864777E0,3.056493988E0,1.162779155E1
5.990007958E0,8.630602570E0,-6.914571075E0,3.368145905E0,1.156040660E1
5.999992958E0,8.443042603E0,-6.716083832E0,3.525468750E0,1.134987578E1
6.009977958E0,8.232729950E0,-6.585555267E0,3.531007233E0,1.111824594E1
6.019962958E0,7.997718658E0,-6.501729584E0,3.446582794E0,1.086806902E1
6.029947958E0,7.772437134E0,-6.531068573E0,3.343746643E0,1.068860502E1
6.039932958E0,7.456294556E0,-6.588399353E0,3.183280334E0,1.044684681E1
6.049917958E0,7.224726105E0,-6.633156281E0,3.003803558E0,1.025759550E1
6.059902958E0,7.003785553E0,-6.711742859E0,2.891387329E0,1.012228358E1
6.069887958E0,6.753805389E0,-6.790030060E0,2.783461761E0,9.973267009E0
6.079872958E0,6.580765228E0,-6.867419128E0,2.689756622E0,9.884467976E0
6.089857958E0,6.392307129E0,-6.916666718E0,2.601290588E0,9.770802507E0
6.099842958E0,6.193071442E0,-6.890620880E0,2.466720428E0,9.587465758E0
6.109827958E0,5.978118439E0,-6.821764069E0,2.265538788E0,9.349172748E0
6.119812958E0,5.771697693E0,-6.685098267E0,2.106419678E0,9.079649605E0
6.129797958E0,5.629643097E0,-6.516399078E0,1.897603912E0,8.818006518E0
6.139782958E0,5.523813171E0,-6.362668762E0,1.658251648E0,8.587541223E0
6.149767958E0,5.518424377E0,-6.230493622E0,1.495689697E0,8.456308063E0
6.159752958E0,5.497467957E0,-6.200256500E0,1.343905334E0,8.394725496E0
6.169737958E0,5.466632080E0,-6.248905334E0,1.145268402E0,8.381200623E0
6.179722958E0,5.521717529E0,-6.327042847E0,1.091530151E0,8.468309969E0
6.189707958E0,5.533692627E0,-6.509363708E0,1.106049957E0,8.614924056E0
6.199693958E0,5.518574066E0,-6.740333405E0,1.110839996E0,8.781840333E0
6.209678958E0,5.573509827E0,-6.985373840E0,1.148860931E0,9.009957875E0
6.219663958E0,5.658982086E0,-7.259603577E0,1.227597198E0,9.286168059E0
6.229648958E0,5.754184113E0,-7.626340942E0,1.316661987E0,9.643926055E0
6.239633958E0,5.910608826E0,-7.956105194E0,1.361119537E0,1.000437669E1
6.249618958E0,6.001769257E0,-8.106093292E0,1.461860046E0,1.019151694E1
6.259603958E0,6.121071167E0,-8.048163757E0,1.647324371E0,1.024471228E1
6.269588958E0,6.408174133E0,-7.875872040E0,1.692380676E0,1.029360036E1
6.279573958E0,7.091203766E0,-8.016729126E0,1.362915802E0,1.078937701E1
6.289558958E0,7.896080017E0,-8.788673859E0,8.223898315E-1,1.184336071E1
6.299543958E0,8.080646210E0,-9.722432098E0,6.027964783E-1,1.265645656E1
6.309528958E0,7.947722626E0,-1.033406021E1,6.460565186E-1,1.305283434E1
6.319513958E0,7.883206787E0,-1.060918808E1,8.044271851E-1,1.324186256E1
6.329498958E0,7.544910278E0,-1.057790314E1,1.048719177E0,1.303524138E1
6.339483958E0,7.106621704E0,-1.023526566E1,1.365909576E0,1.253516829E1
6.349467083E0,6.532864838E0,-9.556576996E0,1.812880096E0,1.171721047E1
6.359452083E0,6.117029572E0,-8.550219727E0,2.095342712E0,1.071983065E1
6.369437083E0,6.115832062E0,-7.381001129E0,2.210902405E0,9.837208391E0
6.379422083E0,6.132597198E0,-6.126759338E0,2.386636963E0,8.991215957E0
6.389407083E0,6.078409882E0,-4.908143463E0,2.492766266E0,8.200659888E0
6.399392083E0,6.174210663E0,-4.083059235E0,2.395618286E0,7.780182324E0
6.409377083E0,6.425238647E0,-3.680695953E0,2.255210266E0,7.740619337E0
6.419362083E0,6.539451141E0,-3.657943268E0,2.042053528E0,7.766270198E0
6.429347083E0,6.596781921E0,-3.923191681E0,1.682950287E0,7.857562367E0
6.439332083E0,6.570885773E0,-4.394262085E0,1.215472412E0,7.997715442E0
6.449317083E0,6.568640442E0,-4.914580078E0,7.042854309E-1,8.233841908E0
6.459302083E0,6.514902191E0,-5.365741882E0,1.859133911E-1,8.442138372E0
6.469287083E0,6.552474060E0,-5.714666290E0,-3.881428528E-1,8.703044409E0
6.479272083E0,6.671476593E0,-6.048023071E0,-8.717871094E-1,9.046944001E0
6.489257083E0,6.864425354E0,-6.362968140E0,-1.156495056E0,9.431075220E0
6.499242083E0,6.907984772E0,-6.582711182E0,-1.384620667E0,9.642070032E0
6.509227083E0,6.787335663E0,-6.647077332E0,-1.396745453E0,9.602211220E0
6.519212083E0,6.728507996E0,-6.581214294E0,-1.327738953E0,9.505161343E0
6.529197083E0,6.865024109E0,-6.553821259E0,-1.063388672E0,9.550493420E0
6.539182083E0,6.944059753E0,-6.439309387E0,-5.264552307E-1,9.484820839E0
6.549167083E0,6.986271973E0,-6.302793274E0,1.706451416E-1,9.410755490E0
6.559152083E0,6.917714539E0,-6.091432800E0,7.466473389E-1,9.247584022E0
6.569137083E0,6.811136169E0,-5.943091278E0,1.218615875E0,9.121235361E0
6.579122083E0,6.758745117E0,-5.790857849E0,1.645079041E0,9.051019569E0
6.589107083E0,6.778504028E0,-5.715863800E0,2.042053528E0,9.098856986E0
6.599092083E0,6.787784729E0,-5.696703644E0,2.371967468E0,9.173477182E0
6.609077083E0,6.870412903E0,-5.758525085E0,2.613565063E0,9.337767772E0
6.619062083E0,6.866221619E0,-5.838608551E0,2.763553162E0,9.427172174E0
6.629047083E0,6.765331421E0,-5.947581940E0,2.623294830E0,9.382170108E0
6.639032083E0,6.617888031E0,-6.089337158E0,2.293081512E0,9.280877752E0
6.649017083E0,6.485263824E0,-6.187982025E0,1.888772278E0,9.160634756E0
6.659002083E0,6.414610748E0,-6.248605957E0,1.459614716E0,9.073190320E0
6.668987083E0,6.415209503E0,-6.217919769E0,1.201551361E0,9.014497485E0
6.678972083E0,6.512656860E0,-6.152356110E0,1.015937347E0,9.016557756E0
6.688958083E0,6.594686279E0,-6.040538635E0,8.574169922E-1,8.984050202E0
6.698943083E0,6.664890289E0,-5.931714935E0,7.430548096E-1,8.953107566E0
6.708928083E0,6.734196167E0,-5.820196838E0,6.927593994E-1,8.927709944E0
6.718913083E0,6.739734650E0,-5.643564148E0,6.810836792E-1,8.816899365E0
6.728898083E0,6.788682861E0,-5.492827606E0,6.441105652E-1,8.756269098E0
6.738883083E0,6.771169281E0,-5.360802155E0,5.786965942E-1,8.655739305E0
6.748868083E0,6.753655701E0,-5.287754059E0,5.131329346E-1,8.592759377E0
6.758853083E0,6.740782471E0,-5.344186707E0,4.816983032E-1,8.615713153E0
6.768838083E0,6.706354065E0,-5.527405701E0,5.522016907E-1,8.708175775E0
6.778823083E0,6.705755310E0,-5.826783142E0,7.096742249E-1,8.911913014E0
6.788808083E0,6.855743408E0,-6.216871948E0,9.562115479E-1,9.304034341E0
6.798793083E0,7.113956451E0,-6.625971222E0,1.207239532E0,9.796392107E0
6.808778083E0,7.410639496E0,-6.969207458E0,1.325044556E0,1.025880955E1
6.818763083E0,7.613018646E0,-7.222331085E0,1.272054749E0,1.057063113E1
6.828748083E0,7.915988617E0,-7.435487823E0,1.242266693E0,1.093126623E1
6.838733083E0,8.283025360E0,-7.597151642E0,1.321452026E0,1.131686607E1
6.848718083E0,8.581804047E0,-7.645650787E0,1.425635376E0,1.158169991E1
6.858703083E0,9.054670715E0,-7.560178528E0,1.519789581E0,1.189340664E1
6.868688083E0,9.435927887E0,-7.602839813E0,1.584604797E0,1.222091980E1
6.878673083E0,9.897418213E0,-7.862998810E0,1.533111877E0,1.273326626E1
6.888658083E0,1.043480072E1,-8.393495636E0,1.351090393E0,1.345961665E1
6.898643083E0,1.110645401E1,-9.228459320E0,1.177451477E0,1.448807006E1
6.908628083E0,1.164683029E1,-1.021999741E1,1.221310272E0,1.554312072E1
6.918613083E0,1.171059769E1,-1.093042007E1,1.685494995E0,1.610754713E1
6.928598083E0,1.143681702E1,-1.125584335E1,2.418969727E0,1.622794527E1
6.938583083E0,1.089224945E1,-1.082893112E1,3.196752319E0,1.568840568E1
6.948568083E0,1.027732819E1,-9.757010193E0,3.793860626E0,1.467024543E1
6.958553083E0,9.821226654E0,-8.339008942E0,4.083059235E0,1.351543325E1
6.968538083E0,9.434131622E0,-6.879094849E0,4.165088654E0,1.239648131E1
6.978523083E0,9.080866241E0,-5.469925232E0,4.067641296E0,1.135464308E1
6.988508083E0,8.952283630E0,-4.217928772E0,3.781586151E0,1.059408793E1
6.998493083E0,8.905580750E0,-3.401825867E0,3.390599213E0,1.011819899E1
7.008478083E0,8.946445770E0,-3.082539825E0,2.885848846E0,9.892879624E0
7.018463083E0,8.891959076E0,-3.191363525E0,2.387086029E0,9.744224806E0
7.028448083E0,8.577313385E0,-3.630250854E0,1.822310486E0,9.490513246E0
7.038433083E0,8.247249756E0,-4.274062042E0,1.201551361E0,9.366347236E0
7.048418083E0,8.111332397E0,-4.957091675E0,6.965016174E-1,9.531609814E0
7.058403083E0,8.047864380E0,-5.603597260E0,3.180885315E-1,9.811707478E0
7.068388083E0,7.926915894E0,-6.280339966E0,5.748046875E-2,1.011345488E1
7.078373083E0,7.853568420E0,-6.903344421E0,6.137237549E-3,1.045632530E1
7.088358083E0,7.903564453E0,-7.269932098E0,-1.781295776E-2,1.073864801E1
7.098343083E0,8.012088776E0,-7.375312958E0,-4.894821167E-2,1.088995885E1
7.108328083E0,8.349786530E0,-7.327861633E0,3.382965088E-2,1.110934902E1
7.118313083E0,8.884474640E0,-7.105274506E0,4.104464722E-1,1.138364097E1
7.128298083E0,9.317374420E0,-6.885830841E0,9.595046997E-1,1.162535082E1
7.138283083E0,9.463171234E0,-6.932234344E0,1.509011993E0,1.182728202E1
7.148268083E0,9.515113220E0,-7.057972870E0,1.980980530E0,1.201152132E1
7.158253083E0,9.484726410E0,-7.096293182E0,2.486030273E0,1.210362584E1
7.168238083E0,9.414223022E0,-7.061565399E0,2.994373169E0,1.214329328E1
7.178223083E0,9.218430176E0,-7.041357422E0,3.322341156E0,1.206640460E1
7.188209083E0,8.941056976E0,-6.972500610E0,3.482957153E0,1.186125015E1
7.198194083E0,8.598868561E0,-6.907386017E0,3.467838593E0,1.156193870E1
7.208179083E0,8.222401428E0,-6.882088623E0,3.160976715E0,1.117867626E1
7.218164083E0,7.840246124E0,-6.865473175E0,2.646197205E0,1.075204822E1
7.228149083E0,7.559280396E0,-6.873107300E0,2.133962402E0,1.043724674E1
7.238134083E0,7.338040466E0,-6.828350372E0,1.674268341E0,1.016249877E1
7.248119083E0,7.185058594E0,-6.827452240E0,1.315314789E0,9.998461086E0
7.258104083E0,6.990313568E0,-6.873706055E0,1.094523926E0,9.864598387E0
7.268089083E0,6.797963562E0,-6.959777069E0,8.622070313E-1,9.766995772E0
7.278074083E0,6.656807098E0,-7.030729523E0,7.170089722E-1,9.708673454E0
7.288059083E0,6.497837677E0,-7.125332794E0,6.887178040E-1,9.667812272E0
7.298044083E0,6.269562378E0,-7.183561707E0,6.494993591E-1,9.556820633E0
7.308029083E0,6.050717468E0,-7.171436920E0,5.977070618E-1,9.402018034E0
7.318014083E0,5.847440186E0,-7.112160187E0,5.761518860E-1,9.225363421E0
7.327999083E0,5.652844849E0,-7.018155670E0,5.786965942E-1,9.030174619E0
7.337984083E0,5.471122742E0,-6.876999207E0,5.794450378E-1,8.806932422E0
7.347969583E0,5.353766785E0,-6.761589203E0,6.071374512E-1,8.645838491E0
7.357954583E0,5.281018066E0,-6.678961029E0,7.394622803E-1,8.546606152E0
7.367939583E0,5.184169464E0,-6.660399628E0,9.036708069E-1,8.488413112E0
7.377924583E0,5.129233704E0,-6.676865387E0,1.051563263E0,8.485007665E0
7.387909583E0,5.137616272E0,-6.770869904E0,1.192270660E0,8.582615542E0
7.397894583E0,5.132526855E0,-6.915020142E0,1.261426849E0,8.703535671E0
7.407879583E0,5.215903473E0,-7.134912872E0,1.312321014E0,8.935033138E0
7.417864583E0,5.317392426E0,-7.426955566E0,1.344055023E0,9.232595253E0
7.427849583E0,5.416186981E0,-7.712561646E0,1.327439575E0,9.517393781E0
7.437834583E0,5.539231110E0,-7.958949280E0,1.292262726E0,9.782530239E0
7.447819583E0,5.651198273E0,-8.167914734E0,1.223555603E0,1.000739533E1
7.457804583E0,5.780828705E0,-8.322543182E0,1.188977509E0,1.020276301E1
7.467789583E0,5.949378204E0,-8.381221161E0,1.221010895E0,1.035040273E1
7.477774583E0,6.223009186E0,-8.300838318E0,1.241368561E0,1.044848104E1
7.487759583E0,6.786437531E0,-8.224946136E0,1.027762756E0,1.071269199E1
7.497744583E0,7.638765106E0,-8.618777161E0,4.469705200E-1,1.152535617E1
7.507729583E0,8.056696014E0,-9.344318390E0,6.002517700E-2,1.233816193E1
7.517714583E0,7.985743561E0,-9.923763428E0,2.290237427E-2,1.273788465E1
7.527699583E0,7.955207062E0,-1.033076706E1,8.547225952E-2,1.303907102E1
7.537684583E0,7.964787140E0,-1.033286270E1,3.998185730E-1,1.305242279E1
7.547669583E0,7.623796234E0,-9.901160431E0,8.749305725E-1,1.252680128E1
7.557654583E0,7.316335602E0,-9.468260651E0,1.379381561E0,1.204489186E1
7.567639583E0,6.890471191E0,-8.845705261E0,1.854493561E0,1.136504471E1
7.577624583E0,6.613996124E0,-7.943381653E0,2.311193848E0,1.059168890E1
7.587609583E0,6.454278259E0,-6.839577026E0,2.747237091E0,9.797184972E0
7.597594583E0,6.307283936E0,-5.759423218E0,2.960543518E0,9.039779000E0
7.607579583E0,6.295458527E0,-4.969665527E0,2.931653595E0,8.539611602E0
7.617564583E0,6.446943512E0,-4.470902710E0,2.653981018E0,8.282250113E0
7.627549583E0,6.591093750E0,-4.186045074E0,2.218536530E0,8.117105058E0
7.637534583E0,6.697372742E0,-4.147275696E0,1.646426239E0,8.047696360E0
7.647519583E0,6.731950836E0,-4.365521851E0,9.638456726E-1,8.081209165E0
7.657504583E0,6.596781921E0,-4.783901825E0,2.863545227E-1,8.153848619E0
7.667489583E0,6.486012268E0,-5.228477325E0,-3.493734741E-1,8.338308708E0
7.677475583E0,6.431525574E0,-5.650150452E0,-8.812174988E-1,8.606117918E0
7.687460583E0,6.261329498E0,-5.950575714E0,-1.232387238E0,8.725386909E0
7.697445583E0,6.076912994E0,-6.139333191E0,-1.374591522E0,8.746987220E0
7.707430583E0,6.006409607E0,-6.329138489E0,-1.397344208E0,8.836714390E0
7.717415583E0,5.923482056E0,-6.512207794E0,-1.358724518E0,8.907447577E0
7.727400583E0,5.849086761E0,-6.632707214E0,-1.073268127E0,8.908227961E0
7.737385583E0,5.820346527E0,-6.710096283E0,-5.770500183E-1,8.901393854E0
7.747370583E0,5.881569214E0,-6.638245697E0,-5.089416504E-3,8.869001536E0
7.757355583E0,5.855223999E0,-6.577921143E0,5.638774109E-1,8.824434960E0
7.767340583E0,5.793252869E0,-6.512357483E0,1.085093536E0,8.783507657E0
7.777325583E0,5.664670258E0,-6.430926819E0,1.572180634E0,8.713039700E0
7.787310583E0,5.632187805E0,-6.353537750E0,2.053878937E0,8.735410700E0
7.797295583E0,5.674699402E0,-6.257886658E0,2.406695251E0,8.783822673E0
7.807280583E0,5.695057068E0,-6.146518250E0,2.673739929E0,8.795581095E0
7.817265583E0,5.667364655E0,-6.103557587E0,2.888992310E0,8.815821794E0
7.827250583E0,5.683081970E0,-6.100414124E0,3.035088501E0,8.872667883E0
7.837235583E0,5.755830688E0,-6.179898834E0,3.052751770E0,8.979979392E0
7.847220583E0,5.791456604E0,-6.299200745E0,2.936144257E0,9.046648148E0
7.857205583E0,5.822741547E0,-6.347699890E0,2.636467438E0,9.008250305E0
7.867190583E0,5.908064117E0,-6.368356934E0,2.199675751E0,8.961013618E0
7.877175583E0,6.038442993E0,-6.400540009E0,1.773661652E0,8.976390245E0
7.887160583E0,6.194119263E0,-6.410868530E0,1.501826935E0,9.040012881E0
7.897145583E0,6.406826935E0,-6.391858063E0,1.346899109E0,9.149722295E0
7.907130583E0,6.655609589E0,-6.386768646E0,1.240171051E0,9.307307719E0
7.917115583E0,6.865173798E0,-6.342909851E0,1.138831787E0,9.415946819E0
7.927100583E0,7.018305359E0,-6.252198486E0,1.031654663E0,9.455734100E0
7.937085583E0,7.104376373E0,-6.091133423E0,8.952882385E-1,9.400830339E0
7.947070583E0,7.174730072E0,-5.949378204E0,8.168513489E-1,9.356233150E0
7.957055583E0,7.222780151E0,-5.874982910E0,8.039781189E-1,9.345071328E0
7.967040583E0,7.327711945E0,-5.883664856E0,8.021818542E-1,9.431668474E0
7.977025583E0,7.498357086E0,-6.026318207E0,9.496252441E-1,9.666626000E0
7.987010583E0,7.736212463E0,-6.182443542E0,1.243464203E0,9.980871438E0
7.996995583E0,7.926017761E0,-6.378236389E0,1.547332306E0,1.029067025E1
8.006980583E0,8.192164307E0,-6.579567719E0,1.775308228E0,1.065617130E1
8.016965583E0,8.337811432E0,-6.798113251E0,1.908531189E0,1.092592946E1
8.026950583E0,8.474477234E0,-6.928791504E0,1.969304810E0,1.112218852E1
8.036935583E0,8.766819305E0,-7.060966644E0,2.006876678E0,1.143424351E1
8.046920583E0,8.959468689E0,-7.164251862E0,2.057770844E0,1.165474173E1
8.056905583E0,9.107361145E0,-7.329807587E0,2.077230377E0,1.187371013E1
8.066890583E0,9.351054382E0,-7.493267670E0,2.068249054E0,1.216013703E1
8.076875583E0,9.592053223E0,-7.578889618E0,2.062261505E0,1.239757942E1
8.086860583E0,9.913135529E0,-7.740254059E0,2.042951660E0,1.274187743E1
8.096845583E0,1.049258057E1,-8.035739594E0,1.777403870E0,1.333516113E1
8.106830583E0,1.119881195E1,-8.543633423E0,1.340761871E0,1.414937114E1
8.116815583E0,1.179906372E1,-9.304052124E0,1.094523926E0,1.506589769E1
8.126800583E0,1.210068649E1,-1.003558090E1,1.220262451E0,1.576795922E1
8.136785583E0,1.198946777E1,-1.037312897E1,1.755249939E0,1.595086344E1
8.146770583E0,1.140208923E1,-1.009186386E1,2.430495758E0,1.541948977E1
8.156756583E0,1.082054855E1,-9.270222473E0,2.957549744E0,1.455226430E1
8.166741583E0,1.038749908E1,-8.008346558E0,3.331771545E0,1.353271789E1
8.176726583E0,9.785001984E0,-6.638545074E0,3.503165131E0,1.233242517E1
8.186711583E0,9.236991577E0,-5.348827057E0,3.378474426E0,1.119580518E1
8.196696583E0,8.872200165E0,-4.218078461E0,3.051554260E0,1.028688996E1
8.206681583E0,8.611143036E0,-3.464395752E0,2.687361603E0,9.663112061E0
8.216666583E0,8.451724548E0,-3.039130096E0,2.312840424E0,9.274545294E0
8.226651583E0,8.355175323E0,-3.011287994E0,1.854493561E0,9.072814141E0
8.236636583E0,8.087980957E0,-3.286864929E0,1.341660004E0,8.832834686E0
8.246621583E0,7.792645111E0,-3.715723114E0,7.948471069E-1,8.669699995E0
8.256606583E0,7.678731995E0,-4.243525543E0,2.980302429E-1,8.778340168E0
8.266591583E0,7.587421875E0,-4.825066223E0,-8.143066406E-2,8.992044580E0
8.276576583E0,7.620652771E0,-5.448370056E0,-3.468287659E-1,9.374399987E0
8.286561583E0,7.812553711E0,-6.132896576E0,-5.361849976E-1,9.946653218E0
8.296546583E0,7.991880798E0,-6.759643250E0,-5.436694336E-1,1.048134114E1
8.306531583E0,8.168064423E0,-7.160809021E0,-2.421963501E-1,1.086522532E1
8.316516583E0,8.468190308E0,-7.329208832E0,3.191363525E-1,1.120399024E1
8.326501583E0,8.823850708E0,-7.248227234E0,8.595126343E-1,1.145145848E1
8.336486583E0,9.036708069E0,-7.102131042E0,1.326092377E0,1.156982623E1
8.346471000E0,9.053473206E0,-7.059320068E0,1.763482819E0,1.161504406E1
8.356456000E0,9.152866516E0,-6.973847809E0,2.177222443E0,1.171109800E1
8.366441000E0,9.223369904E0,-6.916816406E0,2.670297089E0,1.183399291E1
8.376426000E0,9.205856323E0,-6.835236053E0,3.154989166E0,1.189210659E1
8.386411000E0,9.192983093E0,-6.763535156E0,3.583547974E0,1.196236440E1
8.396396000E0,9.108708344E0,-6.708150330E0,3.859274597E0,1.195248296E1
8.406381000E0,9.032217407E0,-6.652466125E0,3.914958801E0,1.188121034E1
8.416366000E0,8.963061218E0,-6.653813324E0,3.825894012E0,1.180030352E1
8.426351000E0,8.843908997E0,-6.665189667E0,3.482957153E0,1.160906845E1
8.436336000E0,8.677305450E0,-6.682104492E0,2.961741028E0,1.134539820E1
8.446321000E0,8.480464783E0,-6.768025818E0,2.330054626E0,1.109745966E1
8.456306000E0,8.344248047E0,-6.895710297E0,1.788181458E0,1.097154907E1
8.466291000E0,8.195906525E0,-6.994953918E0,1.425186310E0,1.086891991E1
8.476276000E0,7.975415039E0,-7.077282715E0,1.207688599E0,1.073096862E1
8.486261000E0,7.810308380E0,-7.181016998E0,1.032403107E0,1.065991455E1
8.496246000E0,7.630831604E0,-7.217091980E0,9.117539978E-1,1.054264212E1
8.506231000E0,7.388186188E0,-7.239844666E0,8.744815063E-1,1.038100977E1
8.516216000E0,7.134912872E0,-7.280110931E0,7.830216980E-1,1.022350820E1
8.526201000E0,6.782395935E0,-7.259902954E0,7.346722412E-1,9.962270265E0
8.536186000E0,6.461463318E0,-7.173831940E0,7.472460938E-1,9.683633080E0
8.546171000E0,6.189179535E0,-7.070247345E0,7.821235657E-1,9.429000907E0
8.556156000E0,5.892197113E0,-6.985972595E0,8.405021667E-1,9.177594664E0
8.566141000E0,5.638175354E0,-6.887627106E0,8.849597168E-1,8.944919350E0
8.576126000E0,5.471422119E0,-6.859186249E0,9.859996033E-1,8.829331301E0
8.586111000E0,5.291945343E0,-6.869963837E0,1.075663147E0,8.738314473E0
8.596096000E0,5.243446198E0,-6.949298859E0,1.106948090E0,8.775637682E0
8.606081000E0,5.221591644E0,-7.107220459E0,1.088985443E0,8.886140402E0
8.616066000E0,5.202581177E0,-7.341483307E0,1.075363770E0,9.062043659E0
8.626052000E0,5.329666901E0,-7.616311798E0,9.500743103E-1,9.344313558E0
8.636037000E0,5.420977020E0,-7.961044922E0,8.146060181E-1,9.665858010E0
8.646022000E0,5.525908813E0,-8.311166840E0,8.015830994E-1,1.001267686E1
8.656007000E0,5.649252319E0,-8.546327820E0,8.313711548E-1,1.027837288E1
8.665992000E0,5.788013763E0,-8.671168213E0,9.494755554E-1,1.046860857E1
8.675977000E0,5.991440735E0,-8.649912415E0,1.068029022E0,1.057634308E1
8.685962000E0,6.278843079E0,-8.422984314E0,1.138682098E0,1.056726701E1
8.695947000E0,6.837930450E0,-8.296647034E0,9.794132996E-1,1.079587399E1
8.705932000E0,7.654632111E0,-8.741072845E0,5.357359314E-1,1.163128369E1
8.715917000E0,7.815697174E0,-9.481283569E0,3.379971313E-1,1.229203411E1
8.725902000E0,7.724237366E0,-9.966724091E0,5.057981873E-1,1.261963802E1
8.735887000E0,7.663463745E0,-1.023107437E1,7.207511902E-1,1.280324340E1
8.745872000E0,7.466623077E0,-1.036339920E1,1.060993652E0,1.281702815E1
8.755857000E0,7.210805054E0,-1.020652542E1,1.594933319E0,1.259812220E1
8.765842000E0,6.735842743E0,-9.639953613E0,2.251917114E0,1.197378026E1
8.775827000E0,6.410868530E0,-8.738528137E0,2.793191528E0,1.119209669E1
8.785812000E0,6.248905334E0,-7.635771332E0,3.134032745E0,1.035258340E1
8.795797000E0,6.080655212E0,-6.514153748E0,3.234024811E0,9.479846166E0
8.805782000E0,6.007906494E0,-5.502257996E0,3.142115936E0,8.731705220E0
8.815767000E0,6.131699066E0,-4.700525208E0,2.787802734E0,8.213678515E0
8.825752000E0,6.265820160E0,-4.205205231E0,2.266436920E0,7.879149042E0
8.835737000E0,6.509812775E0,-3.957620087E0,1.646575928E0,7.794333288E0
8.845722000E0,6.588399353E0,-3.917353821E0,9.845027161E-1,7.727995380E0
8.855707000E0,6.543941803E0,-4.085304565E0,3.180885315E-1,7.721014702E0
8.865692000E0,6.468648376E0,-4.440366211E0,-4.089495850E-1,7.856685285E0
8.875677000E0,6.440057831E0,-4.817731476E0,-1.064885559E0,8.112882514E0
8.885662000E0,6.507417755E0,-5.251529388E0,-1.596579895E0,8.513172976E0
8.895647000E0,6.600524139E0,-5.692811737E0,-1.904190216E0,8.921937277E0
8.905632000E0,6.592291260E0,-6.108048248E0,-1.964664459E0,9.199264313E0
8.915617000E0,6.516548767E0,-6.379433899E0,-1.785337372E0,9.292470836E0
8.925602000E0,6.404731293E0,-6.602619781E0,-1.448837128E0,9.312051328E0
8.935587000E0,6.336173859E0,-6.776857452E0,-8.901988220E-1,9.320158263E0
8.945572000E0,6.251749420E0,-6.829547882E0,-1.957928467E-1,9.260962689E0
8.955557000E0,6.121969299E0,-6.877597961E0,4.357438660E-1,9.217902936E0
8.965542000E0,5.883964233E0,-6.893614655E0,1.096170502E0,9.129323517E0
8.975527000E0,5.651946716E0,-6.788832550E0,1.775457916E0,9.010271910E0
8.985512000E0,5.504203949E0,-6.637946320E0,2.393223267E0,8.949084314E0
8.995497000E0,5.367987213E0,-6.506070557E0,2.815944214E0,8.892344046E0
9.005482000E0,5.322481842E0,-6.407874756E0,3.081941071E0,8.881893526E0
9.015467000E0,5.245092773E0,-6.304888916E0,3.260819092E0,8.825846339E0
9.025452000E0,5.198389893E0,-6.234235840E0,3.283721466E0,8.756242382E0
9.035437000E0,5.094954987E0,-6.264323273E0,3.261717224E0,8.708565417E0
9.045422000E0,4.999303894E0,-6.340814209E0,3.113226013E0,8.653966748E0
9.055407000E0,4.942122803E0,-6.366710358E0,2.774031372E0,8.523780184E0
9.065392000E0,5.022355957E0,-6.417155457E0,2.329306183E0,8.475235148E0
9.075378000E0,5.280868378E0,-6.447392578E0,1.946851501E0,8.558426996E0
9.085363000E0,5.625152435E0,-6.423442383E0,1.689536591E0,8.703877633E0
9.095348000E0,5.857319641E0,-6.389912109E0,1.354084167E0,8.773409490E0
9.105333000E0,6.158193970E0,-6.392905884E0,1.037642212E0,8.936962569E0
9.115318000E0,6.430477753E0,-6.397097168E0,8.515791321E-1,9.110383270E0
9.125303000E0,6.597530365E0,-6.435567169E0,7.455995178E-1,9.246612912E0
9.135288000E0,6.682852936E0,-6.432423706E0,7.482939148E-1,9.305726295E0
9.145273000E0,6.766379242E0,-6.288572845E0,8.378077698E-1,9.275341414E0
9.155258000E0,6.960525513E0,-6.218368835E0,1.006806335E0,9.387794490E0
9.165243000E0,7.123237152E0,-6.203399963E0,1.167572021E0,9.517662689E0
9.175228000E0,7.427105255E0,-6.287375336E0,1.220412140E0,9.807261946E0
9.185213000E0,7.749834137E0,-6.380032654E0,1.281934204E0,1.011968879E1
9.195198000E0,7.936346283E0,-6.394253082E0,1.337169342E0,1.027910923E1
9.205183000E0,8.136480103E0,-6.398893433E0,1.317260742E0,1.043471713E1
9.215168000E0,8.243357849E0,-6.506669312E0,1.216220856E0,1.057208056E1
9.225153000E0,8.474477234E0,-6.746470642E0,1.149609375E0,1.089280644E1
9.235138000E0,8.787027283E0,-6.996750183E0,1.207239532E0,1.129706992E1
9.245123000E0,9.110803986E0,-7.301815796E0,1.290915527E0,1.174690283E1
9.255108000E0,9.429790649E0,-7.629783783E0,1.400487671E0,1.221048394E1
9.265093000E0,9.763297119E0,-7.929610291E0,1.589694214E0,1.267784752E1
9.275078000E0,1.010009674E1,-8.164322205E0,1.796863403E0,1.311094311E1
9.285063000E0,1.030696655E1,-8.194110260E0,1.890718231E0,1.330232378E1
9.295048000E0,1.066442322E1,-8.107739868E0,1.865121460E0,1.352568100E1
9.305033000E0,1.122605530E1,-8.009693756E0,1.796114960E0,1.390703205E1
9.315018000E0,1.198677338E1,-8.187973022E0,1.614841919E0,1.460593553E1
9.325003000E0,1.259421021E1,-8.653954010E0,1.517544250E0,1.535604087E1
9.334988000E0,1.296663574E1,-9.077872467E0,1.585053864E0,1.590766503E1
9.344973625E0,1.300525543E1,-9.398805084E0,1.763033752E0,1.614256776E1
9.354958625E0,1.260304184E1,-9.589957581E0,2.075583801E0,1.597222583E1
9.364943625E0,1.192240723E1,-9.462722168E0,2.502196655E0,1.542555973E1
9.374928625E0,1.103340591E1,-8.942553864E0,2.945424957E0,1.450451116E1
9.384913625E0,1.004875351E1,-8.072413330E0,3.268303528E0,1.329748518E1
9.394898625E0,9.251810760E0,-7.061715088E0,3.443738708E0,1.213767517E1
9.404883625E0,8.625962219E0,-6.063590698E0,3.458557892E0,1.109666522E1
9.414868625E0,8.214018860E0,-5.121749268E0,3.253035278E0,1.021198609E1
9.424853625E0,8.122858429E0,-4.458029480E0,2.944975891E0,9.722537678E0
9.434838625E0,7.990982666E0,-4.265380096E0,2.574196930E0,9.416780828E0
9.444823625E0,7.874973907E0,-4.335883484E0,1.898352356E0,9.187972643E0
9.454808625E0,7.755073242E0,-4.520150299E0,1.083297272E0,9.041374492E0
9.464793625E0,7.526648254E0,-4.842579803E0,3.040177917E-1,8.955079001E0
9.474778625E0,7.271129608E0,-5.207520905E0,-3.278182983E-1,8.949584604E0
9.484763625E0,7.112010498E0,-5.661826172E0,-8.878038025E-1,9.133737708E0
9.494748625E0,7.017556915E0,-6.147715759E0,-1.302291870E0,9.420004152E0
9.504733625E0,7.094047852E0,-6.561455383E0,-1.524429932E0,9.782744926E0
9.514718625E0,7.215295715E0,-6.957232361E0,-1.591191101E0,1.014866807E1
9.524703625E0,7.321724396E0,-7.320227509E0,-1.300794983E0,1.043481895E1
9.534689625E0,7.449558563E0,-7.523504791E0,-5.439688110E-1,1.060164842E1
9.544674625E0,7.660320282E0,-7.504793701E0,4.619393921E-1,1.073386339E1
9.554659625E0,7.873027954E0,-7.517966309E0,1.376088409E0,1.097260251E1
9.564644625E0,8.056097260E0,-7.525001678E0,2.212548981E0,1.124374165E1
9.574629625E0,8.315058746E0,-7.405550079E0,2.887645111E0,1.150308081E1
9.584614625E0,8.394842834E0,-7.215744781E0,3.440295868E0,1.159206602E1
9.594599625E0,8.337811432E0,-7.034771118E0,3.806284790E0,1.155399966E1
9.604584625E0,8.369096375E0,-6.889273682E0,3.996688843E0,1.155324144E1
9.614569625E0,8.336913300E0,-6.756499786E0,4.102967834E0,1.148863603E1
9.624554625E0,8.257727966E0,-6.677613831E0,4.033961334E0,1.136016909E1
9.634539625E0,8.068671112E0,-6.614894257E0,3.758833466E0,1.109004547E1
9.644524625E0,7.701634369E0,-6.532415771E0,3.186872864E0,1.058979633E1
9.654509625E0,7.370073853E0,-6.539301453E0,2.373015289E0,1.013467580E1
9.664494625E0,7.046297150E0,-6.530469818E0,1.746268616E0,9.764568277E0
9.674479625E0,6.718778229E0,-6.471791840E0,1.371148682E0,9.429004147E0
9.684464625E0,6.485263824E0,-6.564748535E0,1.106648712E0,9.294043338E0
9.694449625E0,6.277196503E0,-6.660699005E0,9.590556335E-1,9.202602614E0
9.704434625E0,6.108497314E0,-6.695576477E0,9.340576172E-1,9.111363643E0
9.714419625E0,5.896837463E0,-6.669231262E0,8.701405334E-1,8.944746069E0
9.724404625E0,5.641618195E0,-6.578370209E0,7.180567932E-1,8.695885005E0
9.734389625E0,5.448220367E0,-6.406826935E0,6.084846497E-1,8.432128445E0
9.744374625E0,5.319488068E0,-6.227350159E0,5.128335571E-1,8.206085642E0
9.754359625E0,5.165009308E0,-6.061345367E0,3.707789612E-1,7.972120537E0
9.764344625E0,5.108576660E0,-5.917494507E0,2.396516418E-1,7.821235813E0
9.774329625E0,5.067861328E0,-5.837261353E0,1.589694214E-1,7.731889149E0
9.784314625E0,5.040019226E0,-5.806575165E0,7.454498291E-2,7.689191498E0
9.794299625E0,5.029391327E0,-5.855673065E0,-4.640350342E-3,7.719048238E0
9.804284625E0,5.038522339E0,-5.992937622E0,-2.859054565E-2,7.829612131E0
9.814269625E0,5.065017242E0,-6.179449768E0,-2.739303589E-2,7.990040643E0
9.824254625E0,5.117857361E0,-6.448440399E0,-3.667373657E-2,8.232629745E0
9.834239625E0,5.162913666E0,-6.804699554E0,3.442840576E-3,8.541640674E0
9.844224625E0,5.241500244E0,-7.156168671E0,1.237925720E-1,8.871268199E0
9.854209625E0,5.296136627E0,-7.388485565E0,2.306703186E-1,9.093513673E0
9.864194625E0,5.437293091E0,-7.518415375E0,2.550695801E-1,9.282014135E0
9.874179625E0,5.740712128E0,-7.688461761E0,2.212399292E-1,9.597768860E0
9.884164625E0,6.301745453E0,-8.120014343E0,7.170089722E-2,1.027870467E1
9.894149625E0,6.732848969E0,-8.738378448E0,-2.424957275E-2,1.103136896E1
9.904134625E0,7.046895905E0,-9.439370728E0,7.604187012E-2,1.177990849E1
9.914119625E0,7.318730621E0,-1.012838791E1,3.763174438E-1,1.250158687E1
9.924104625E0,7.507637787E0,-1.074675201E1,8.909472656E-1,1.313967621E1
9.934089625E0,7.718100128E0,-1.132080826E1,1.480271759E0,1.378118187E1
9.944074625E0,7.796986084E0,-1.164937500E1,2.126927032E0,1.417831966E1
9.954059625E0,7.520211639E0,-1.149833908E1,2.785258026E0,1.401866780E1
9.964044625E0,7.069648590E0,-1.070633606E1,3.455564117E0,1.328707968E1
9.974030625E0,6.676715698E0,-9.334588623E0,3.863914948E0,1.210962080E1
9.984015625E0,6.536457367E0,-7.657775574E0,3.891158295E0,1.079388320E1
9.994000625E0,6.572682037E0,-6.114933929E0,3.565285950E0,9.659390769E0
1.000398562E1,6.683002625E0,-4.914280701E0,3.079695740E0,8.848570774E0
1.001397063E1,6.919361115E0,-4.035907288E0,2.411634979E0,8.365529818E0
1.002395562E1,7.081024933E0,-3.544479218E0,1.740281067E0,8.107578258E0
1.003394062E1,7.135212250E0,-3.430865479E0,1.081800385E0,7.990768665E0
1.004392563E1,6.999294891E0,-3.511098633E0,4.387376404E-1,7.842858746E0
1.005391062E1,6.796915741E0,-3.845802612E0,-1.775308228E-1,7.811515763E0
1.006389563E1,6.605613556E0,-4.201762390E0,-7.598199463E-1,7.865511044E0
1.007388062E1,6.453529816E0,-4.560117188E0,-1.315763855E0,8.010864521E0
1.008386562E1,6.372248840E0,-4.924309845E0,-1.745819550E0,8.240283286E0
1.009385063E1,6.329737244E0,-5.272485809E0,-1.996248779E0,8.476419608E0
1.010383562E1,6.288423157E0,-5.645360413E0,-2.067799988E0,8.700009010E0
1.011382063E1,6.252348175E0,-6.024072876E0,-1.990710297E0,8.907538336E0
1.012380562E1,6.294111328E0,-6.382727051E0,-1.611099701E0,9.107726624E0
1.013379062E1,6.401587830E0,-6.706503754E0,-9.400451660E-1,9.318862820E0
1.014377563E1,6.505621490E0,-6.953789520E0,-2.448907471E-1,9.525663817E0
1.015376062E1,6.544390869E0,-7.196584625E0,3.941304016E-1,9.735256591E0
1.016374563E1,6.465654602E0,-7.249125366E0,1.067729645E0,9.772131528E0
1.017373062E1,6.370452576E0,-7.180268555E0,1.697769470E0,9.747889193E0
1.018371562E1,6.233786774E0,-7.088209991E0,2.280657349E0,9.711035803E0
1.019370063E1,6.197262726E0,-6.916367340E0,2.728076935E0,9.679080857E0
1.020368562E1,6.268364868E0,-6.766379242E0,3.014581146E0,9.703812944E0
1.021367063E1,6.335724792E0,-6.701414337E0,3.257076874E0,9.780537435E0
1.022365562E1,6.407874756E0,-6.652466125E0,3.343297577E0,9.823125935E0
1.023364062E1,6.506519623E0,-6.567592621E0,3.269501038E0,9.806003644E0
1.024362563E1,6.441854095E0,-6.452032928E0,2.900218964E0,9.567522309E0
1.025361062E1,6.535559235E0,-6.365063782E0,2.209255829E0,9.386606563E0
1.026359563E1,6.684499512E0,-6.230942688E0,1.591789856E0,9.275827481E0
1.027358062E1,6.799610138E0,-6.071224823E0,1.094224548E0,9.181056379E0
1.028356562E1,6.959926758E0,-5.940696259E0,6.201603699E-1,9.171534844E0
1.029355063E1,7.189998322E0,-5.794450378E0,1.836680603E-1,9.236095767E0
1.030353562E1,7.383096771E0,-5.701343994E0,-1.088237000E-1,9.328841507E0
1.031352063E1,7.512876892E0,-5.642067261E0,-2.644999695E-1,9.399266057E0
1.032350563E1,7.648045807E0,-5.497467957E0,-3.233276367E-1,9.424399151E0
1.033349062E1,7.803871765E0,-5.435646515E0,-2.564167786E-1,9.513801402E0
1.034347571E1,7.899073792E0,-5.459447021E0,-1.610650635E-1,9.603482207E0
1.035346071E1,7.964637451E0,-5.567971344E0,-4.984634399E-2,9.718036801E0
1.036344571E1,7.933352509E0,-5.701343994E0,1.341210938E-1,9.770434680E0
1.037343071E1,7.865693207E0,-5.855822754E0,4.397854614E-1,9.815966636E0
1.038341571E1,7.789202271E0,-6.046376495E0,7.848179626E-1,9.891727856E0
1.039340071E1,7.703280945E0,-6.234834595E0,1.058299255E0,9.966629172E0
1.040338671E1,7.740254059E0,-6.442752228E0,1.271306305E0,1.015070485E1
1.041337171E1,7.927664337E0,-6.648574219E0,1.496288452E0,1.045419916E1
1.042335671E1,8.077353058E0,-6.799161072E0,1.669478302E0,1.068921800E1
1.043334171E1,8.307125244E0,-7.040010223E0,1.771116943E0,1.103208634E1
1.044332671E1,8.537945251E0,-7.324119415E0,1.825903015E0,1.139619042E1
1.045331171E1,8.929381256E0,-7.572003937E0,1.907932434E0,1.186209507E1
1.046329671E1,9.338480530E0,-7.791746979E0,2.019151154E0,1.232864595E1
1.047328171E1,9.819430389E0,-7.977510681E0,2.051783295E0,1.281685236E1
1.048326671E1,1.037253021E1,-8.056396637E0,2.058519287E0,1.329407430E1
1.049325171E1,1.116198853E1,-8.235574036E0,1.845212860E0,1.399355130E1
1.050323671E1,1.180071030E1,-8.533753967E0,1.737736359E0,1.466633724E1
1.051322171E1,1.209664490E1,-8.660839691E0,1.940414886E0,1.500347199E1
1.052320671E1,1.220247482E1,-8.692274323E0,2.289189606E0,1.515573864E1
1.053319171E1,1.209739334E1,-8.617879028E0,2.596650238E0,1.507837382E1
1.054317671E1,1.180445251E1,-8.446036377E0,2.892584839E0,1.480025935E1
1.055316171E1,1.120749390E1,-8.027506714E0,3.296145630E0,1.417439097E1
1.056314671E1,1.037208115E1,-7.247179413E0,3.699107666E0,1.318275670E1
1.057313171E1,9.475146332E0,-6.167474670E0,3.900588684E0,1.195954572E1
1.058311671E1,8.691825256E0,-5.106780396E0,3.662583618E0,1.072574245E1
1.059310171E1,8.224048004E0,-4.156107330E0,3.100203094E0,9.722111548E0
1.060308671E1,7.967331848E0,-3.532354431E0,2.518363037E0,9.071827654E0
1.061307171E1,7.751181335E0,-3.397634583E0,1.890718231E0,8.671767310E0
1.062305671E1,7.484436035E0,-3.580254822E0,1.251846771E0,8.390597577E0
1.063304171E1,7.149881744E0,-3.914958801E0,7.234455872E-1,8.183586310E0
1.064302671E1,6.904691620E0,-4.336781616E0,3.558100891E-1,8.161436269E0
1.065301171E1,6.801256714E0,-4.931644592E0,9.714797974E-2,8.401645613E0
1.066299671E1,6.621929626E0,-5.541626129E0,-2.365081787E-2,8.634820872E0
1.067298171E1,6.519991608E0,-6.071973267E0,-3.143463135E-2,8.909553190E0
1.068296671E1,6.493197327E0,-6.487209778E0,1.796264648E-2,9.178552439E0
1.069295171E1,6.477929077E0,-6.712640991E0,2.275268555E-2,9.328645769E0
1.070293671E1,6.807992706E0,-6.819967804E0,-6.286926270E-3,9.636429062E0
1.071292171E1,7.468119965E0,-6.856342163E0,9.265731812E-2,1.013858121E1
1.072290671E1,8.278983765E0,-6.772815857E0,4.819976807E-1,1.070723721E1
1.073289171E1,8.880133667E0,-6.681356049E0,1.049168243E0,1.116234951E1
1.074287671E1,9.408085785E0,-6.776408386E0,1.431622925E0,1.168252254E1
1.075286171E1,9.961784363E0,-7.003336487E0,1.763482819E0,1.230421640E1
1.076284671E1,1.043959076E1,-7.234455872E0,2.183060303E0,1.288751952E1
1.077283171E1,1.087563400E1,-7.606282654E0,2.626737671E0,1.352903180E1
1.078281671E1,1.111573471E1,-8.074359283E0,3.124602356E0,1.408964073E1
1.079280171E1,1.096739319E1,-8.373587036E0,3.606450348E0,1.426208811E1
1.080278671E1,1.046279251E1,-8.422086182E0,3.972289581E0,1.400645020E1
1.081277171E1,9.726473694E0,-8.210576019E0,4.008663940E0,1.334493296E1
1.082275771E1,8.944499817E0,-7.882608032E0,3.606600037E0,1.245580789E1
1.083274271E1,8.366252289E0,-7.466922455E0,3.123853912E0,1.164077195E1
1.084272771E1,7.862699432E0,-7.021299133E0,2.718796234E0,1.088634635E1
1.085271271E1,7.651189270E0,-6.749913483E0,2.417921906E0,1.048562710E1
1.086269771E1,7.539970551E0,-6.621779938E0,2.402653656E0,1.031852073E1
1.087268271E1,7.511080627E0,-6.647676086E0,2.534230042E0,1.034554259E1
1.088266771E1,7.511829071E0,-6.798712006E0,2.688559113E0,1.048229035E1
1.089265271E1,7.310348053E0,-6.975344696E0,2.780168610E0,1.047978816E1
1.090263771E1,7.013215942E0,-7.184759216E0,2.811154175E0,1.042633927E1
1.091262271E1,6.604416046E0,-7.311844940E0,2.810705109E0,1.024604562E1
1.092260771E1,6.220913544E0,-7.329059143E0,2.721939697E0,9.991187565E0
1.093259271E1,5.938450928E0,-7.326215057E0,2.576442261E0,9.776332708E0
1.094257771E1,5.809568939E0,-7.346872101E0,2.349065094E0,9.656382746E0
1.095256271E1,5.836961975E0,-7.390281830E0,2.108964386E0,9.650602127E0
1.096254771E1,6.081403656E0,-7.548652496E0,1.893262939E0,9.876743871E0
1.097253271E1,6.534960480E0,-7.845335541E0,1.866768036E0,1.037977943E1
1.098251771E1,6.932084656E0,-8.103847961E0,2.069745941E0,1.086324066E1
1.099250271E1,7.226672058E0,-8.264314270E0,2.273771667E0,1.121132093E1
1.100248771E1,7.547454987E0,-8.456364899E0,2.377655640E0,1.158133975E1
1.101247271E1,7.799530792E0,-8.636739807E0,2.536475372E0,1.191048540E1
1.102245771E1,7.984246674E0,-8.801547089E0,2.745740204E0,1.219649603E1
1.103244271E1,8.545130310E0,-9.061406708E0,2.924917603E0,1.279388473E1
1.104242771E1,9.222771149E0,-9.673184509E0,2.834954681E0,1.366261228E1
1.105241271E1,9.560768280E0,-1.043719574E1,2.765648804E0,1.442193324E1
1.106239771E1,9.575437775E0,-1.095931000E1,2.892734528E0,1.483790407E1
1.107238271E1,9.199419708E0,-1.122680374E1,3.152145081E0,1.485282680E1
1.108236771E1,8.600515137E0,-1.120929016E1,3.478466492E0,1.455049056E1
1.109235271E1,7.708969116E0,-1.084075653E1,3.743864594E0,1.381907121E1
1.110233771E1,6.772965546E0,-1.000848724E1,3.996090088E0,1.272837834E1
1.111232271E1,5.718707886E0,-8.848549347E0,4.179309082E0,1.133433147E1
1.112230771E1,4.820276184E0,-7.715106354E0,4.037254486E0,9.952756017E0
1.113229271E1,4.373155975E0,-6.742279358E0,3.564537506E0,8.791402150E0
1.114227771E1,4.268074493E0,-5.857619019E0,3.161276093E0,7.907074489E0
1.115226271E1,4.266128540E0,-5.127587128E0,2.767445068E0,7.221547942E0
1.116224771E1,4.378844147E0,-4.729265442E0,2.251468048E0,6.827103050E0
1.117223271E1,4.579876099E0,-4.592599640E0,1.701661377E0,6.705437195E0
1.118221771E1,4.808151398E0,-4.551135864E0,1.225501556E0,6.732979399E0
1.119220271E1,5.043761444E0,-4.675527191E0,7.903564453E-1,6.922770206E0
1.120218771E1,5.345384216E0,-4.962779846E0,2.745291138E-1,7.299156284E0
1.121217271E1,5.678441620E0,-5.368286591E0,-1.598675537E-1,7.815929745E0
1.122215771E1,5.893095245E0,-5.703140259E0,-4.394860840E-1,8.212644422E0
1.123214271E1,6.011499023E0,-5.940696259E0,-7.351213074E-1,8.483536755E0
1.124212871E1,6.121370544E0,-6.193670197E0,-1.045725403E0,8.770762194E0
1.125211371E1,6.035299530E0,-6.377787323E0,-1.295406189E0,8.875758489E0
1.126209871E1,5.820196838E0,-6.568790131E0,-1.408870239E0,8.888678775E0
1.127208371E1,5.534740448E0,-6.759044495E0,-1.430874481E0,8.852425435E0
1.128206871E1,5.177732849E0,-6.916217651E0,-1.391206970E0,8.750910861E0
1.129205371E1,4.884492645E0,-7.065307617E0,-1.144220581E0,8.665222494E0
1.130203871E1,4.633764038E0,-7.117249603E0,-6.830296326E-1,8.520184303E0
1.131202371E1,4.454736328E0,-7.137158203E0,-7.574249268E-2,8.413646052E0
1.132200871E1,4.273912354E0,-7.064409485E0,4.873864746E-1,8.271018906E0
1.133199371E1,4.185596008E0,-6.946604462E0,8.503816223E-1,8.154610745E0
1.134197871E1,4.275708618E0,-6.831344147E0,1.068927155E0,8.129671107E0
1.135196362E1,4.437222748E0,-6.654561768E0,1.173858948E0,8.083939811E0
1.136194863E1,4.567601624E0,-6.440656586E0,1.142873383E0,7.978170305E0
1.137193362E1,4.719385986E0,-6.311325531E0,9.479786682E-1,7.937512054E0
1.138191863E1,4.902604980E0,-6.228547668E0,6.596781921E-1,7.953962344E0
1.139190362E1,5.124443665E0,-6.235433350E0,3.959266663E-1,8.080675087E0
1.140188862E1,5.271737366E0,-6.299799500E0,1.055305481E-1,8.215219126E0
1.141187363E1,5.390141144E0,-6.368057556E0,-1.842668152E-1,8.345042411E0
1.142185862E1,5.652844849E0,-6.399043121E0,-4.616400146E-1,8.550761326E0
1.143184363E1,5.846242676E0,-6.478378143E0,-6.773414612E-1,8.752526964E0
1.144182862E1,5.960006104E0,-6.541846161E0,-8.466394043E-1,8.890119360E0
1.145181362E1,6.096222839E0,-6.599326630E0,-9.927355957E-1,9.038836697E0
1.146179863E1,6.231391754E0,-6.629114685E0,-1.045426025E0,9.157964854E0
1.147178362E1,6.368207245E0,-6.717880096E0,-1.012644196E0,9.311789558E0
1.148176863E1,6.514453125E0,-6.782695313E0,-9.228309631E-1,9.449585822E0
1.149175362E1,6.679559784E0,-6.840624847E0,-7.676037598E-1,9.591656934E0
1.150173862E1,6.916816406E0,-6.934030609E0,-5.466632080E-1,9.809279808E0
1.151172363E1,7.154522095E0,-6.959777069E0,-2.630030823E-1,9.984731037E0
1.152170862E1,7.364834747E0,-7.127578125E0,-1.347198486E-2,1.024906543E1
1.153169363E1,7.672744446E0,-7.305707703E0,1.655557251E-1,1.059583791E1
1.154167862E1,7.993377686E0,-7.533833313E0,3.803590393E-1,1.099078724E1
1.155166362E1,8.393495636E0,-7.837701416E0,4.742138672E-1,1.149370311E1
1.156164863E1,8.907227325E0,-8.137378235E0,6.292913818E-1,1.208104428E1
1.157163362E1,9.349108429E0,-8.535849609E0,8.152047729E-1,1.268586283E1
1.158161863E1,9.765542450E0,-8.846453705E0,8.836125183E-1,1.320629901E1
1.159160362E1,1.017389328E1,-9.029373322E0,9.364526367E-1,1.363505154E1
1.160158862E1,1.056802368E1,-9.120384064E0,1.014440460E0,1.399620018E1
1.161157363E1,1.102921463E1,-9.256900177E0,1.027762756E0,1.443572210E1
1.162155862E1,1.169113815E1,-9.510472870E0,8.828640747E-1,1.509672993E1
1.163154363E1,1.246562759E1,-9.930200043E0,6.909631348E-1,1.595237206E1
1.164152962E1,1.319730606E1,-1.044887146E1,5.670208740E-1,1.684248541E1
1.165151463E1,1.370175705E1,-1.084614532E1,8.228388977E-1,1.749440135E1
1.166149863E1,1.385608612E1,-1.089614136E1,1.259331207E0,1.767209479E1
1.167148462E1,1.350925735E1,-1.048988617E1,1.759890289E0,1.719403850E1
1.168146963E1,1.257759476E1,-9.631870422E0,2.307601318E0,1.600917992E1
1.169145462E1,1.144759460E1,-8.392447815E0,2.787203979E0,1.446544533E1
1.170143963E1,1.048344955E1,-7.098388824E0,3.222349091E0,1.306420193E1
1.171142462E1,9.722731476E0,-5.899082794E0,3.726201324E0,1.196725789E1
1.172140962E1,9.148974609E0,-4.728966064E0,3.992198181E0,1.104556485E1
1.173139463E1,8.829089813E0,-3.778742065E0,3.983965302E0,1.039729282E1
1.174137962E1,8.603957977E0,-3.288511505E0,3.752097473E0,9.945885393E0
1.175136463E1,8.312514038E0,-3.169808350E0,3.290158081E0,9.485289390E0
1.176134963E1,7.936645660E0,-3.280727692E0,2.667602692E0,8.992753897E0
1.177133462E1,7.455396423E0,-3.445385284E0,1.832788696E0,8.415030005E0
1.178131963E1,7.138804779E0,-3.664529572E0,9.234297180E-1,8.077377860E0
1.179130462E1,6.928791504E0,-3.993994446E0,1.225950623E-1,7.998448155E0
1.180128963E1,6.739135895E0,-4.474644928E0,-5.712121582E-1,8.109542723E0
1.181127463E1,6.744824066E0,-4.937632141E0,-9.422904968E-1,8.411942357E0
1.182125962E1,6.814878387E0,-5.377118225E0,-9.927355957E-1,8.737361833E0
1.183124463E1,6.995402985E0,-5.929020538E0,-7.441026306E-1,9.200143270E0
1.184122962E1,7.425308990E0,-6.546785889E0,-1.299298096E-1,9.900126304E0
1.185121462E1,8.043673096E0,-6.901997223E0,8.089178467E-1,1.062979730E1
1.186119963E1,8.662336578E0,-7.068002014E0,1.707349548E0,1.130963173E1
1.187118462E1,9.202114105E0,-7.097939758E0,2.423909454E0,1.187160435E1
1.188116963E1,9.683662720E0,-6.938221893E0,3.132535858E0,1.231767136E1
1.189115462E1,1.028017227E1,-6.717730408E0,3.620521088E0,1.280304717E1
1.190113962E1,1.071861053E1,-6.326743469E0,3.946842499E0,1.305732976E1
1.191112463E1,1.100212097E1,-5.976172485E0,4.091741180E0,1.317207840E1
1.192110962E1,1.113654144E1,-5.732778625E0,3.996239777E0,1.314751834E1
1.193109463E1,1.104912323E1,-5.586383057E0,3.664230194E0,1.291190856E1
1.194107962E1,1.073687256E1,-5.543721771E0,3.117267609E0,1.247920834E1
1.195106462E1,1.016700760E1,-5.651647339E0,2.469863892E0,1.189156797E1
1.196104963E1,9.661658478E0,-5.871390381E0,1.847907257E0,1.145581210E1
1.197103462E1,9.339678040E0,-6.079308014E0,1.451681213E0,1.123810260E1
1.198101963E1,9.046737213E0,-6.235882416E0,1.274150391E0,1.106133549E1
1.199100462E1,8.760382690E0,-6.380930786E0,1.337468719E0,1.092013760E1
1.200098962E1,8.640631714E0,-6.599176941E0,1.558708649E0,1.098358891E1
1.201097463E1,8.526119843E0,-6.864874420E0,1.850751343E0,1.110164406E1
1.202095962E1,8.318800964E0,-7.100185089E0,2.170336761E0,1.115013181E1
1.203094463E1,8.160130920E0,-7.320077820E0,2.443967743E0,1.123139592E1
1.204092962E1,7.878865814E0,-7.487579498E0,2.677781525E0,1.119423455E1
1.205091563E1,7.611821136E0,-7.557184753E0,2.859054565E0,1.110067815E1
1.206090062E1,7.399113464E0,-7.619155884E0,2.926414490E0,1.101645670E1
1.207088562E1,7.197782135E0,-7.669750671E0,2.936144257E0,1.092035192E1
1.208087063E1,7.141199799E0,-7.732021179E0,2.890938263E0,1.091505429E1
1.209085562E1,7.106472015E0,-7.848778381E0,2.843337250E0,1.096311239E1
1.210084063E1,7.092700653E0,-8.035889282E0,2.746039581E0,1.106447705E1
1.211082562E1,7.146289215E0,-8.260122986E0,2.688708801E0,1.124847707E1
1.212081062E1,7.231162720E0,-8.553961945E0,2.662513275E0,1.151299076E1
1.213079563E1,7.316634979E0,-8.834179230E0,2.602637787E0,1.176221040E1
1.214078062E1,7.419920197E0,-9.074729004E0,2.544109497E0,1.199493290E1
1.215076563E1,7.452702026E0,-9.261989594E0,2.476150818E0,1.214325087E1
1.216075062E1,7.424560547E0,-9.382788391E0,2.356399841E0,1.219481191E1
1.217073562E1,7.416327667E0,-9.371112671E0,2.221530304E0,1.215544593E1
1.218072063E1,7.602690125E0,-9.294322357E0,2.114652557E0,1.219250100E1
1.219070562E1,8.103548584E0,-9.423803101E0,1.826352081E0,1.256228986E1
1.220069063E1,8.579858093E0,-9.873917084E0,1.428030396E0,1.315855137E1
1.221067562E1,8.926387482E0,-1.046848068E1,1.104553070E0,1.380179404E1
1.222066062E1,9.071136475E0,-1.113833771E1,9.154962158E-1,1.439396461E1
1.223064563E1,8.924142151E0,-1.163605270E1,1.089434509E0,1.470458783E1
1.224063062E1,8.138126678E0,-1.172362061E1,1.622775421E0,1.436334870E1
1.225061563E1,7.087611237E0,-1.145852188E1,2.296674042E0,1.366772360E1
1.226060062E1,5.917943573E0,-1.074540482E1,2.941083984E0,1.261490213E1
1.227058562E1,4.834346924E0,-9.589957581E0,3.408262482E0,1.126740652E1
1.228057063E1,3.881727905E0,-8.200097809E0,3.702550507E0,9.798892583E0
1.229055562E1,3.496129761E0,-6.904841309E0,3.642675018E0,8.553878541E0
1.230054063E1,3.538940735E0,-5.710025940E0,3.498375092E0,7.574108927E0
1.231052562E1,3.630400543E0,-4.768184509E0,3.315754852E0,6.849059925E0
1.232051062E1,3.744912415E0,-4.118086395E0,2.820135498E0,6.239885318E0
1.233049563E1,4.123624878E0,-3.829785919E0,2.200873260E0,6.042796160E0
1.234048062E1,4.296365662E0,-3.766617279E0,1.670825500E0,5.952967451E0
1.235046588E1,4.384083252E0,-3.881129150E0,1.168470154E0,5.970650881E0
1.236045087E1,4.498445435E0,-4.175716553E0,6.828799438E-1,6.175673653E0
1.237043587E1,4.582869873E0,-4.594096527E0,1.405577087E-1,6.490622131E0
1.238042088E1,4.738396454E0,-5.038971405E0,-4.427792358E-1,6.931066817E0
1.239040587E1,4.832850037E0,-5.478906555E0,-1.063238983E0,7.382772762E0
1.240039088E1,5.021757202E0,-5.798491974E0,-1.585053864E0,7.832812414E0
1.241037587E1,5.043162689E0,-6.049519958E0,-1.956730957E0,8.115354439E0
1.242036188E1,4.928201752E0,-6.271508331E0,-2.294578400E0,8.299643323E0
1.243034687E1,5.005590820E0,-6.528224487E0,-2.369422760E0,8.560830487E0
1.244033187E1,4.987179108E0,-6.806046753E0,-2.073637848E0,8.688739942E0
1.245031688E1,4.936584320E0,-7.045997772E0,-1.579814758E0,8.747100321E0
1.246030187E1,4.912933502E0,-7.179220734E0,-9.618997192E-1,8.752335517E0
1.247028688E1,4.846322021E0,-7.081324310E0,-2.616558838E-1,8.584896908E0
1.248027187E1,4.856800232E0,-6.791077881E0,3.029699707E-1,8.354581861E0
1.249025687E1,4.941973114E0,-6.519841919E0,8.741821289E-1,8.227735491E0
1.250024188E1,5.037025452E0,-6.265371094E0,1.385518799E0,8.157583140E0
1.251022687E1,5.212310944E0,-5.997428284E0,1.751358032E0,8.136620081E0
1.252021188E1,5.380112000E0,-5.833668823E0,1.987866211E0,8.181009054E0
1.253019687E1,5.650599518E0,-5.835465088E0,2.013313293E0,8.368713050E0
1.254018187E1,5.830076294E0,-5.919590149E0,1.932481384E0,8.530288473E0
1.255016688E1,5.892496490E0,-6.133944397E0,1.694775696E0,8.672891871E0
1.256015187E1,5.976621552E0,-6.433770905E0,1.330583038E0,8.881658879E0
1.257013688E1,6.104605408E0,-6.784042511E0,9.886940002E-1,9.179703470E0
1.258012187E1,6.272556152E0,-7.064110107E0,7.590715027E-1,9.477489216E0
1.259010687E1,6.455625458E0,-7.247628479E0,5.625302124E-1,9.722122138E0
1.260009188E1,6.714886322E0,-7.297923889E0,3.495231628E-1,9.923283622E0
1.261007687E1,6.944209442E0,-7.268734589E0,1.196012878E-1,1.005340001E1
1.262006188E1,7.282805328E0,-7.241191864E0,-6.242019653E-2,1.027024875E1
1.263004688E1,7.547454987E0,-7.059320068E0,-2.016307068E-1,1.033628229E1
1.264003187E1,7.785310364E0,-6.889573059E0,-2.583627319E-1,1.039923198E1
1.265001688E1,8.088130646E0,-6.767876129E0,-2.722837830E-1,1.054969872E1
1.266000187E1,8.198002167E0,-6.646029510E0,-2.128573608E-1,1.055567412E1
1.266998688E1,8.486602020E0,-6.668931885E0,-2.564167786E-1,1.079642607E1
1.267997188E1,8.831933899E0,-6.713988190E0,-2.962339783E-1,1.109812815E1
1.268995687E1,9.084758148E0,-6.772815857E0,-2.386038208E-1,1.133405475E1
1.269994188E1,9.392518158E0,-6.984625397E0,-1.242416382E-1,1.170554677E1
1.270992687E1,9.669591980E0,-7.244485016E0,-1.990859985E-2,1.208238257E1
1.271991187E1,9.919123077E0,-7.578290863E0,1.204994202E-1,1.248334952E1
1.272989688E1,1.014560211E1,-7.980205078E0,3.475772095E-1,1.291269628E1
1.273988187E1,1.027747787E1,-8.307274933E0,6.074368286E-1,1.322899648E1
1.274986688E1,1.044258453E1,-8.493936768E0,8.580157471E-1,1.348816980E1
1.275985187E1,1.069406158E1,-8.577762451E0,1.047970734E0,1.374915286E1
1.276983687E1,1.104852448E1,-8.541986847E0,1.154698792E0,1.401316387E1
1.277982287E1,1.156539963E1,-8.637188873E0,1.092428284E0,1.447594210E1
1.278980788E1,1.238704102E1,-9.091344452E0,9.593550110E-1,1.539518402E1
1.279979288E1,1.323263260E1,-9.761201477E0,9.044192505E-1,1.646819948E1
1.280977787E1,1.377660141E1,-1.028705795E1,1.225800934E0,1.723719512E1
1.281976288E1,1.389635239E1,-1.049737061E1,1.793270874E0,1.750769030E1
1.282974787E1,1.363319962E1,-1.029978149E1,2.468516693E0,1.726392786E1
1.283973287E1,1.297905991E1,-9.669891357E0,2.983745270E0,1.645799291E1
1.284971788E1,1.208691513E1,-8.648265839E0,3.347638550E0,1.523458904E1
1.285970287E1,1.105361389E1,-7.351811829E0,3.622467041E0,1.376058809E1
1.286968788E1,1.003558090E1,-5.985153809E0,3.758534088E0,1.227442580E1
1.287967287E1,9.058412933E0,-4.737947388E0,3.555406494E0,1.082330382E1
1.288965787E1,8.445437622E0,-3.752995605E0,3.009791107E0,9.719528546E0
1.289964288E1,8.074958038E0,-3.264411621E0,2.478845215E0,9.055716656E0
1.290962787E1,7.713459778E0,-3.085234222E0,2.021695862E0,8.550051819E0
1.291961288E1,7.348967743E0,-3.190764771E0,1.449286194E0,8.141789556E0
1.292959787E1,7.088209991E0,-3.474275208E0,8.241860962E-1,7.936787248E0
1.293958287E1,6.956034851E0,-3.880231018E0,2.592608643E-1,7.969305478E0
1.294956788E1,6.903793488E0,-4.355193329E0,-2.344125366E-1,8.166089804E0
1.295955287E1,7.031328278E0,-4.976850586E0,-6.417155457E-1,8.638311059E0
1.296953788E1,7.133565674E0,-5.693111115E0,-9.774673462E-1,9.179036758E0
1.297952287E1,7.334747314E0,-6.370452576E0,-1.107247467E0,9.777892469E0
1.298950787E1,7.544610901E0,-7.033573608E0,-9.598040771E-1,1.035922464E1
1.299949288E1,7.735613708E0,-7.526049500E0,-5.773493958E-1,1.080807443E1
1.300947787E1,7.830965424E0,-7.827223206E0,-4.595443726E-2,1.107210704E1
1.301946288E1,7.943231964E0,-7.844138031E0,5.628295898E-1,1.117775526E1
1.302944787E1,8.233328705E0,-7.558531952E0,1.172661438E0,1.123807108E1
1.303943287E1,8.378227386E0,-7.223528595E0,1.810036011E0,1.120938401E1
1.304941788E1,8.429720306E0,-6.934030609E0,2.307301941E0,1.115637070E1
1.305940287E1,8.629854126E0,-6.616241455E0,2.675536194E0,1.119855023E1
1.306938788E1,8.814120941E0,-6.287075958E0,3.026855621E0,1.124179287E1
1.307937287E1,8.943152618E0,-6.068231049E0,3.297941895E0,1.129954988E1
1.308935787E1,9.078171844E0,-5.937852173E0,3.437601471E0,1.137929683E1
1.309934288E1,9.086554413E0,-5.974675598E0,3.488046570E0,1.142053801E1
1.310932887E1,8.987460480E0,-6.102809143E0,3.359164581E0,1.137113504E1
1.311931388E1,8.824898529E0,-6.219416656E0,3.127745819E0,1.124023005E1
1.312929887E1,8.562194824E0,-6.393804016E0,2.768492889E0,1.103886148E1
1.313928388E1,8.292306061E0,-6.602470093E0,2.298021240E0,1.084600630E1
1.314926887E1,8.121361542E0,-6.759792938E0,1.902244263E0,1.073637961E1
1.315925387E1,7.940836945E0,-6.876999207E0,1.719025269E0,1.064448483E1
1.316923888E1,7.811805267E0,-6.974596252E0,1.717977448E0,1.061229197E1
1.317922387E1,7.700137482E0,-7.070397034E0,1.806593170E0,1.060878930E1
1.318920888E1,7.566315765E0,-7.199428711E0,1.870959320E0,1.061043811E1
1.319919387E1,7.363337860E0,-7.274722137E0,1.916913757E0,1.052686492E1
1.320917887E1,7.122937775E0,-7.268285522E0,1.971550140E0,1.036586836E1
1.321916388E1,6.893614655E0,-7.232210541E0,1.991758118E0,1.018792877E1
1.322914887E1,6.606811066E0,-7.217241669E0,1.922302551E0,9.971648653E0
1.323913388E1,6.394851837E0,-7.203320618E0,1.820963287E0,9.802951863E0
1.324911887E1,6.267766113E0,-7.198829956E0,1.783092041E0,9.710173120E0
1.325910387E1,6.107449493E0,-7.144642639E0,1.773811340E0,9.565211154E0
1.326908888E1,6.065536652E0,-7.261250153E0,1.718576202E0,9.616131905E0
1.327907387E1,5.995482330E0,-7.395371246E0,1.759291534E0,9.681551061E0
1.328905888E1,5.955365753E0,-7.474406891E0,1.766626282E0,9.718750333E0
1.329904387E1,5.989943848E0,-7.649692383E0,1.687590637E0,9.861297227E0
1.330902887E1,5.999523926E0,-7.895331573E0,1.711690521E0,1.006282428E1
1.331901388E1,5.986950073E0,-8.140521698E0,1.747765503E0,1.025506455E1
1.332899887E1,6.007906494E0,-8.320297852E0,1.827399902E0,1.042409167E1
1.333898388E1,6.039341125E0,-8.421038361E0,1.957928467E0,1.054613731E1
1.334896921E1,5.930667114E0,-8.442443848E0,2.095193024E0,1.052793923E1
1.335895421E1,5.851032715E0,-8.355175323E0,2.202519836E0,1.043525908E1
1.336893921E1,5.781577148E0,-8.161178741E0,2.316732330E0,1.026638795E1
1.337892421E1,5.846841431E0,-7.951464844E0,2.328557739E0,1.014068681E1
1.338890921E1,6.239325256E0,-7.971523132E0,1.951940918E0,1.030943423E1
1.339889421E1,6.656807098E0,-8.349187775E0,1.261127472E0,1.075232346E1
1.340887921E1,6.882537689E0,-8.907826080E0,7.322772217E-1,1.128073227E1
1.341886521E1,7.139253845E0,-9.359886017E0,5.539979553E-1,1.178487698E1
1.342885021E1,7.032226410E0,-9.572144623E0,6.089337158E-1,1.189323174E1
1.343883521E1,6.783593445E0,-9.572444000E0,7.331753540E-1,1.175526989E1
1.344882021E1,6.332731018E0,-9.468260651E0,8.000862122E-1,1.141891325E1
1.345880521E1,5.795198822E0,-9.008716278E0,1.019829254E0,1.076017426E1
1.346879021E1,5.323230286E0,-8.316555634E0,1.341510315E0,9.965015213E0
1.347877521E1,5.059029694E0,-7.378007355E0,1.578467560E0,9.084070332E0
1.348876021E1,5.212011566E0,-6.361471252E0,1.827100525E0,8.424468968E0
1.349874521E1,5.448819122E0,-5.452860718E0,2.021246796E0,7.969238260E0
1.350873021E1,5.673651581E0,-4.815186768E0,2.012714539E0,7.708914689E0
1.351871521E1,5.993087311E0,-4.509522400E0,1.687291260E0,7.687642004E0
1.352870021E1,6.293811951E0,-4.447551270E0,1.277892609E0,7.811900581E0
1.353868521E1,6.488706665E0,-4.593048706E0,7.982899475E-1,7.989785819E0
1.354867021E1,6.485413513E0,-5.001848602E0,2.844085693E-1,8.195118432E0
1.355865521E1,6.439608765E0,-5.554649048E0,-2.031275940E-1,8.506700177E0
1.356864021E1,6.531068573E0,-6.059399414E0,-6.767427063E-1,8.934716484E0
1.357862521E1,6.604715424E0,-6.564000092E0,-9.993218994E-1,9.365201935E0
1.358861021E1,6.566544800E0,-7.020401001E0,-1.178648987E0,9.684769190E0
1.359859521E1,6.484665070E0,-7.388186188E0,-1.278790741E0,9.913197364E0
1.360858021E1,6.251150665E0,-7.645950165E0,-1.384770355E0,9.972714149E0
1.361856521E1,6.082301788E0,-7.679779816E0,-1.348695374E0,9.889003604E0
1.362855021E1,5.972579956E0,-7.576344910E0,-1.161883850E0,9.717133713E0
1.363853521E1,5.939199371E0,-7.456294556E0,-8.204438782E-1,9.567839141E0
1.364852021E1,6.131699066E0,-7.200476532E0,-2.498304749E-1,9.460814499E0
1.365850521E1,6.292913818E0,-6.882687378E0,3.878434753E-1,9.333947312E0
1.366849021E1,6.406677246E0,-6.663692780E0,8.451425171E-1,9.282487849E0
1.367847521E1,6.500532074E0,-6.487359467E0,1.169368286E0,9.257978844E0
1.368846021E1,6.587201843E0,-6.329886932E0,1.438209229E0,9.248088586E0
1.369844521E1,6.693331146E0,-6.188281403E0,1.574276276E0,9.250613728E0
1.370843021E1,6.815776520E0,-6.057004395E0,1.601519623E0,9.257806269E0
1.371841621E1,7.023544464E0,-5.999224548E0,1.533860321E0,9.363418153E0
1.372840121E1,7.081174622E0,-6.033353577E0,1.283281403E0,9.391017014E0
1.373838621E1,7.012617188E0,-6.101911011E0,9.714797974E-1,9.346330339E0
1.374837121E1,7.004384308E0,-6.203699341E0,6.505471802E-1,9.379258855E0
1.375835621E1,7.033124542E0,-6.266568604E0,4.504133606E-1,9.430673098E0
1.376834121E1,7.093748474E0,-6.287525024E0,3.284170532E-1,9.484835060E0
1.377832621E1,7.180567932E0,-6.346502380E0,3.008743286E-1,9.587970257E0
1.378831121E1,7.236401825E0,-6.385271759E0,3.763174438E-1,9.658096170E0
1.379829621E1,7.328161011E0,-6.409671021E0,5.307962036E-1,9.750260048E0
1.380828121E1,7.391479340E0,-6.424789581E0,7.279362488E-1,9.820477543E0
1.381826621E1,7.441026306E0,-6.389013977E0,9.216334534E-1,9.850775620E0
1.382825121E1,7.432494049E0,-6.280938721E0,1.034498749E0,9.785823760E0
1.383823621E1,7.449857941E0,-6.148613892E0,9.894424438E-1,9.710037717E0
1.384822121E1,7.511829071E0,-6.078110504E0,8.816665649E-1,9.703006711E0
1.385820621E1,7.680079193E0,-6.003116455E0,8.132588196E-1,9.781738777E0
1.386819121E1,7.821535034E0,-5.958060150E0,8.692424011E-1,9.870687585E0
1.387817621E1,7.945177917E0,-5.954317932E0,8.628057861E-1,9.966152116E0
1.388816121E1,8.171806641E0,-6.026467896E0,8.267308044E-1,1.018725787E1
1.389814621E1,8.415649567E0,-6.126459961E0,7.783813477E-1,1.043851267E1
1.390813121E1,8.624165955E0,-6.274651794E0,8.065228271E-1,1.069569879E1
1.391811621E1,8.812923431E0,-6.380781097E0,7.743397522E-1,1.090786821E1
1.392810121E1,8.894054718E0,-6.512207794E0,7.683522034E-1,1.105004185E1
1.393808621E1,8.951385498E0,-6.587950287E0,7.298822021E-1,1.113827273E1
1.394807121E1,9.150770874E0,-6.635401611E0,7.334747314E-1,1.132709792E1
1.395805621E1,9.358239441E0,-6.646628265E0,8.210426331E-1,1.150775494E1
1.396804121E1,9.488768005E0,-6.604565735E0,9.298663330E-1,1.159834722E1
1.397802621E1,9.677525482E0,-6.657854919E0,9.259744263E-1,1.178299454E1
1.398801121E1,9.908345490E0,-6.901398468E0,8.996292114E-1,1.210842450E1
1.399799721E1,1.005683670E1,-7.253915405E0,9.407936096E-1,1.243560798E1
1.400798221E1,1.020128632E1,-7.656727753E0,1.056502991E0,1.279874685E1
1.401796721E1,1.025607239E1,-8.142168274E0,1.249601440E0,1.315459725E1
1.402795221E1,1.034244278E1,-8.789122925E0,1.414408722E0,1.364607476E1
1.403793721E1,1.020712418E1,-9.418863373E0,1.731150055E0,1.399632994E1
1.404792221E1,9.793983307E0,-9.806257782E0,2.208657074E0,1.403434953E1
1.405790721E1,9.360185394E0,-9.981543274E0,2.587668915E0,1.392624526E1
1.406789221E1,8.880882111E0,-9.874665527E0,2.993774414E0,1.361402848E1
1.407787721E1,8.371641083E0,-9.482630768E0,3.395988007E0,1.309722853E1
1.408786221E1,7.945327606E0,-8.810977478E0,3.689377899E0,1.242469574E1
1.409784721E1,7.695048065E0,-8.022716675E0,3.774700470E0,1.173993659E1
1.410783221E1,7.534132690E0,-7.137307892E0,3.419938202E0,1.092704428E1
1.411781721E1,7.537425842E0,-6.399342499E0,2.965483246E0,1.032271590E1
1.412780221E1,7.577692108E0,-5.851481781E0,2.409239960E0,9.872471519E0
1.413778721E1,7.714357910E0,-5.412893829E0,1.796264648E0,9.593607469E0
1.414777221E1,7.970625000E0,-5.259612579E0,1.088386688E0,9.611398075E0
1.415775721E1,8.167914734E0,-5.263354797E0,3.104544067E-1,9.721837108E0
1.416774221E1,8.276738434E0,-5.284909973E0,-3.923341370E-1,9.827949868E0
1.417772721E1,8.344846802E0,-5.582191772E0,-1.035247192E0,1.009302085E1
1.418771221E1,8.466843109E0,-6.159391479E0,-1.551972656E0,1.058461878E1
1.419769721E1,8.429869995E0,-6.924450531E0,-1.838476868E0,1.106303396E1
1.420768221E1,8.340805206E0,-7.573500824E0,-1.839225311E0,1.141532724E1
1.421766721E1,8.090974731E0,-7.919730835E0,-1.678908691E0,1.144573034E1
1.422765221E1,7.604486389E0,-7.811206512E0,-1.395997009E0,1.099053994E1
1.423763721E1,6.888225861E0,-7.237150269E0,-1.150657196E0,1.005723677E1
1.424762221E1,6.555168457E0,-6.404880981E0,-1.110390930E0,9.231776747E0
1.425760721E1,6.560706940E0,-5.606740723E0,-9.258247375E-1,8.679606473E0
1.426759321E1,6.662495270E0,-4.985831909E0,-4.917274475E-1,8.336015771E0
1.427757821E1,6.593039703E0,-4.627776489E0,-6.496490479E-2,8.055352767E0
1.428756321E1,6.520290985E0,-4.393962708E0,1.887574768E-1,7.864905097E0
1.429754821E1,6.545289001E0,-4.507875824E0,3.891906738E-1,7.956960597E0
1.430753321E1,6.230044556E0,-5.174290009E0,8.762777710E-1,8.145832983E0
1.431751821E1,5.533542938E0,-6.163582764E0,1.514999542E0,8.420515040E0
1.432750321E1,4.487069092E0,-7.020401001E0,2.177521820E0,8.611702534E0
1.433748821E1,3.410507812E0,-7.610473938E0,3.023113403E0,8.870743585E0
1.434747321E1,2.487227783E0,-8.023165741E0,3.590882721E0,9.135202749E0
1.435745738E1,1.600022736E0,-8.163873138E0,4.014352112E0,9.237094795E0
1.436744237E1,1.419647827E0,-8.155340881E0,3.905229034E0,9.152912031E0
1.437742738E1,1.404379578E0,-8.087980957E0,3.473676453E0,8.913705518E0
1.438741237E1,1.922003174E0,-7.886499939E0,2.976560211E0,8.645859597E0
1.439739737E1,2.909948730E0,-7.736811218E0,2.600093079E0,8.665248609E0
1.440738238E1,3.550766144E0,-7.657476196E0,2.311193848E0,8.751371259E0
1.441736737E1,4.075724487E0,-7.615263977E0,2.044897614E0,8.876112989E0
1.442735238E1,4.585713959E0,-7.531288605E0,1.786534882E0,8.996709812E0
1.443733737E1,4.974455566E0,-7.428751831E0,1.510508881E0,9.067149443E0
1.444732237E1,5.177732849E0,-7.437733154E0,1.059796143E0,9.124251191E0
1.445730738E1,5.286257172E0,-7.490872650E0,6.472540283E-1,9.191116674E0
1.446729237E1,5.311255188E0,-7.494165802E0,3.357518005E-1,9.191554929E0
1.447727738E1,5.237758026E0,-7.526049500E0,8.247848511E-2,9.169641918E0
1.448726238E1,5.166356506E0,-7.576344910E0,-1.014889526E-1,9.170743795E0
1.449724737E1,5.274431763E0,-7.669600983E0,-7.424560547E-2,9.308486561E0
1.450723337E1,5.514682159E0,-7.880811768E0,2.002835083E-1,9.620760205E0
1.451721837E1,5.708678741E0,-7.927364960E0,6.614744568E-1,9.791306176E0
1.452720338E1,5.795498199E0,-7.837851105E0,1.060095520E0,9.805279794E0
1.453718837E1,5.724545746E0,-7.764054565E0,1.252146149E0,9.727221457E0
1.454717338E1,5.698350220E0,-7.641309814E0,1.383423157E0,9.631960887E0
1.455715837E1,5.695655823E0,-7.462431793E0,1.611548767E0,9.524992018E0
1.456714337E1,5.749992828E0,-7.338938599E0,1.831591187E0,9.501429553E0
1.457712838E1,5.985303497E0,-7.392676849E0,1.902094574E0,9.700180036E0
1.458711337E1,6.285878448E0,-7.526797943E0,1.920057220E0,9.992575988E0
1.459709838E1,6.482569427E0,-7.548502808E0,1.995500336E0,1.014818322E1
1.460708337E1,6.639592896E0,-7.748636627E0,1.956581268E0,1.039008054E1
1.461706837E1,6.559808807E0,-7.917784882E0,1.832339630E0,1.044413125E1
1.462705338E1,6.490652618E0,-7.939489746E0,1.641187134E0,1.038544963E1
1.463703837E1,6.321654053E0,-7.945028229E0,1.422042847E0,1.025226752E1
1.464702338E1,6.159541168E0,-7.911048889E0,1.087488556E0,1.008500239E1
1.465700838E1,6.184838562E0,-7.802674255E0,9.981243896E-1,1.000650818E1
1.466699337E1,6.328240356E0,-7.802674255E0,9.596543884E-1,1.009204083E1
1.467697838E1,6.543941803E0,-7.859555969E0,9.315129089E-1,1.026954286E1
1.468696337E1,6.748566284E0,-7.887697449E0,1.000220032E0,1.042877548E1
1.469694837E1,6.777755585E0,-7.828271027E0,1.119971008E0,1.041509160E1
1.470693338E1,6.823111267E0,-7.723189545E0,1.277443542E0,1.038433272E1
1.471691837E1,6.796466675E0,-7.644153900E0,1.266965332E0,1.030680597E1
1.472690338E1,6.726412354E0,-7.543862457E0,1.216669922E0,1.018011639E1
1.473688937E1,6.610104218E0,-7.479945374E0,1.093176727E0,1.004181736E1
1.474687438E1,6.542295227E0,-7.618557129E0,9.752220154E-1,1.008935566E1
1.475685937E1,6.434968414E0,-7.843539276E0,9.295669556E-1,1.018793510E1
1.476684438E1,6.232439575E0,-7.994126129E0,9.629475403E-1,1.018217185E1
1.477682938E1,6.085894318E0,-8.112380219E0,9.936337280E-1,1.019000149E1
1.478681437E1,5.902375946E0,-8.221203918E0,1.094224548E0,1.017956596E1
1.479679938E1,5.622308350E0,-8.299790497E0,1.255738678E0,1.010315560E1
1.480678437E1,5.501060486E0,-8.395291901E0,1.301992493E0,1.012115493E1
1.481676938E1,5.416785736E0,-8.505313110E0,1.338366852E0,1.017217502E1
1.482675438E1,5.462740173E0,-8.631351013E0,1.526226196E0,1.032817103E1
1.483673937E1,5.629942474E0,-8.815019073E0,1.789378967E0,1.061144150E1
1.484672438E1,5.806275787E0,-8.985963593E0,2.080074463E0,1.089894903E1
1.485670937E1,5.880970459E0,-8.975036316E0,2.372117157E0,1.098926887E1
1.486669437E1,5.920338593E0,-8.955277405E0,2.602188721E0,1.104621150E1
1.487667938E1,5.904770966E0,-8.910969543E0,2.666704559E0,1.101739586E1
1.488666437E1,5.938151550E0,-8.852590942E0,2.605332184E0,1.097350291E1
1.489664938E1,5.873785400E0,-8.959468689E0,2.491269379E0,1.099908438E1
1.490663437E1,5.642067261E0,-9.373956757E0,2.227517853E0,1.116538508E1
1.491661937E1,5.614524536E0,-9.643695831E0,1.919608154E0,1.132292588E1
1.492660438E1,5.947432251E0,-9.816137238E0,1.704655151E0,1.160320429E1
1.493658937E1,6.404581604E0,-9.872420197E0,1.739682312E0,1.189579088E1
1.494657438E1,6.800807648E0,-9.817933502E0,1.709894257E0,1.206509599E1
1.495656037E1,7.173532562E0,-9.670190735E0,1.639091492E0,1.215149288E1
1.496654538E1,7.409441986E0,-9.305399323E0,1.682800598E0,1.201341354E1
1.497653037E1,7.547005920E0,-8.734636230E0,1.746418304E0,1.167480815E1
1.498651537E1,7.715256042E0,-8.191116486E0,1.694027252E0,1.137933625E1
1.499650038E1,7.772886200E0,-7.567213898E0,1.581910400E0,1.096279739E1
1.500648537E1,7.640112305E0,-6.816674652E0,1.497635651E0,1.034800860E1
1.501647038E1,7.513475647E0,-6.282585297E0,1.234632568E0,9.871550632E0
1.502645537E1,7.309898987E0,-5.886508942E0,9.970765686E-1,9.438208114E0
1.503644037E1,7.200925598E0,-5.638175354E0,8.508306885E-1,9.185110977E0
1.504642538E1,7.200925598E0,-5.516628113E0,7.108717346E-1,9.099002903E0
1.505641037E1,7.249275055E0,-5.686075745E0,5.487588501E-1,9.229549419E0
1.506639538E1,7.133116608E0,-5.943240967E0,4.399351501E-1,9.294999121E0
1.507638037E1,6.838080139E0,-6.174360352E0,3.378474426E-1,9.219338731E0
1.508636537E1,6.547384644E0,-6.399043121E0,5.313949585E-2,9.155262003E0
1.509635038E1,6.359076233E0,-6.609056396E0,-2.582130432E-1,9.175192149E0
1.510633537E1,6.188880157E0,-6.798412628E0,-4.552033997E-1,9.204773870E0
1.511632038E1,6.109994202E0,-6.964118042E0,-6.334826660E-1,9.286133185E0
1.512630537E1,6.044131165E0,-7.030579834E0,-6.307882690E-1,9.292925706E0
1.513629037E1,6.017935638E0,-7.035968628E0,-5.123844910E-1,9.272698731E0
1.514627538E1,6.118526459E0,-7.056326294E0,-3.535647583E-1,9.346288827E0
1.515626037E1,5.972430267E0,-7.034621429E0,-9.280700684E-2,9.228457894E0
1.516624638E1,5.806126099E0,-6.987619171E0,1.851649475E-1,9.086925113E0
1.517623137E1,5.748495941E0,-6.913672943E0,4.029620361E-1,9.000358746E0
1.518621638E1,5.675896912E0,-6.807992706E0,6.882687378E-1,8.890347816E0
1.519620137E1,5.593867493E0,-6.672374725E0,8.602610779E-1,8.749399244E0
1.520618637E1,5.563780060E0,-6.578220520E0,9.864486694E-1,8.671892224E0
1.521617138E1,5.624104614E0,-6.550079041E0,1.077010345E0,8.700232148E0
1.522615637E1,5.748945007E0,-6.449637909E0,1.130898285E0,8.713617434E0
1.523614138E1,5.882916412E0,-6.338419189E0,1.101559296E0,8.717665755E0
1.524612637E1,6.059848480E0,-6.215824127E0,9.219328308E-1,8.729730427E0
1.525611137E1,6.193819885E0,-6.058501282E0,7.321275330E-1,8.695105133E0
1.526609638E1,6.300997009E0,-5.974226532E0,5.800437927E-1,8.702321344E0
1.527608137E1,6.346352692E0,-5.955365753E0,4.686753845E-1,8.715631380E0
1.528606638E1,6.444847870E0,-5.937403107E0,4.028123474E-1,8.772176327E0
1.529605137E1,6.520740051E0,-5.962101746E0,5.098397827E-1,8.850234158E0
1.530603637E1,6.641987915E0,-6.039041748E0,6.968009949E-1,9.003974696E0
1.531602138E1,6.669380951E0,-6.197412415E0,8.259823608E-1,9.141707158E0
1.532600637E1,6.648125153E0,-6.300697632E0,8.123606873E-1,9.195449341E0
1.533599138E1,6.552474060E0,-6.365662537E0,8.405021667E-1,9.174040535E0
1.534597637E1,6.409671021E0,-6.347849579E0,8.710386658E-1,9.062989861E0
1.535596162E1,6.369853821E0,-6.365063782E0,8.677455139E-1,9.046659987E0
1.536594663E1,6.331832886E0,-6.400839386E0,9.253756714E-1,9.050921095E0
1.537593263E1,6.297254791E0,-6.461463318E0,1.043629761E0,9.082680727E0
1.538591763E1,6.344706116E0,-6.535858612E0,1.206640778E0,9.188510514E0
1.539590262E1,6.420298920E0,-6.555467834E0,1.350791016E0,9.274644635E0
1.540588763E1,6.532565460E0,-6.600224762E0,1.446142731E0,9.398335342E0
1.541587262E1,6.664441223E0,-6.679110718E0,1.383572845E0,9.536224128E0
1.542585762E1,6.736890564E0,-6.627168732E0,1.284628601E0,9.537050409E0
1.543584263E1,6.920109558E0,-6.629713440E0,1.135838013E0,9.650447895E0
1.544582762E1,7.090754700E0,-6.731651459E0,9.434880066E-1,9.822632193E0
1.545581263E1,7.212751007E0,-6.844217377E0,7.451504517E-1,9.971075057E0
1.546579762E1,7.492519226E0,-7.025939484E0,6.548881531E-1,1.029225672E1
1.547578262E1,7.678881683E0,-7.220385132E0,6.255491638E-1,1.055890606E1
1.548576763E1,7.905061340E0,-7.369475098E0,6.349795532E-1,1.082600374E1
1.549575262E1,8.091573486E0,-7.529642029E0,4.968168640E-1,1.106417180E1
1.550573763E1,8.269852753E0,-7.754773865E0,1.628613281E-1,1.133814385E1
1.551572262E1,8.694519653E0,-8.033793640E0,-7.529342651E-2,1.183816630E1
1.552570762E1,9.010811920E0,-8.500672760E0,-8.681945801E-2,1.238804692E1
1.553569263E1,9.357790375E0,-9.074279938E0,-2.799179077E-2,1.303501364E1
1.554567762E1,9.551637268E0,-9.658814392E0,3.104544067E-1,1.358759920E1
1.555566263E1,9.380093994E0,-1.014365616E1,8.161029053E-1,1.384001256E1
1.556564762E1,9.124425659E0,-1.034962784E1,1.193468170E0,1.384898214E1
1.557563262E1,8.889414368E0,-1.033645523E1,1.778302002E0,1.374868548E1
1.558561763E1,8.554710388E0,-9.916129303E0,2.308200073E0,1.329813813E1
1.559560362E1,8.188272400E0,-9.317673798E0,2.567760315E0,1.266729028E1
1.560558863E1,7.973918152E0,-8.407865753E0,2.179318085E0,1.179088650E1
1.561557362E1,7.805069275E0,-7.476352844E0,1.681303711E0,1.093808669E1
1.562555863E1,7.570507050E0,-6.687792664E0,1.211730194E0,1.017386051E1
1.563554362E1,7.508086853E0,-6.146218872E0,7.652087402E-1,9.733083737E0
1.564552862E1,7.426057434E0,-5.799988861E0,6.459068298E-1,9.444754917E0
1.565551363E1,7.466922455E0,-5.717809753E0,6.126759338E-1,9.424630026E0
1.566549862E1,7.416627045E0,-6.049819336E0,5.508544922E-1,9.586976134E0
1.567548363E1,7.091503143E0,-6.500083008E0,3.050656128E-1,9.624633030E0
1.568546862E1,6.820416870E0,-6.876550140E0,-1.041833496E-1,9.685859915E0
1.569545362E1,6.573729858E0,-7.053332520E0,-4.114942932E-1,9.650531148E0
1.570543863E1,6.342909851E0,-7.006030884E0,-3.619473267E-1,9.457694222E0
1.571542362E1,6.184988251E0,-7.033274231E0,-1.624122620E-1,9.367358422E0
1.572540863E1,6.199657745E0,-7.012317810E0,2.504292297E-1,9.363283186E0
1.573539362E1,6.304589539E0,-7.269033966E0,7.538323975E-1,9.651682099E0
1.574537862E1,6.569688263E0,-7.563771057E0,1.295705566E0,1.010199433E1
1.575536363E1,7.054679718E0,-7.513026581E0,1.760189667E0,1.045525428E1
1.576534862E1,7.557184753E0,-7.318730621E0,2.082469482E0,1.072434326E1
1.577533363E1,8.098908234E0,-7.146289215E0,2.229314117E0,1.102867198E1
1.578531862E1,8.554411011E0,-6.828200684E0,2.322270813E0,1.118906672E1
1.579530362E1,9.003028107E0,-6.648274841E0,2.503244476E0,1.146823031E1
1.580528962E1,9.412426758E0,-6.628815308E0,2.915337524E0,1.187578051E1
1.581527462E1,9.626331940E0,-6.771618347E0,3.288661194E0,1.222032627E1
1.582525963E1,9.878557434E0,-7.015161896E0,3.714525604E0,1.267265141E1
1.583524462E1,9.921667786E0,-7.243437195E0,4.188589783E0,1.297887354E1
1.584522963E1,9.954748993E0,-7.460336151E0,4.507726135E0,1.323152440E1
1.585521462E1,9.942324829E0,-7.558981018E0,4.704566803E0,1.334619668E1
1.586519962E1,9.645192719E0,-7.488926697E0,4.618346100E0,1.305537768E1
1.587518463E1,9.299860840E0,-7.256011047E0,4.307292938E0,1.255746314E1
1.588516962E1,8.983418884E0,-6.984326019E0,3.943998413E0,1.204316189E1
1.589515463E1,8.703201599E0,-6.685996399E0,3.590733032E0,1.154736462E1
1.590513962E1,8.615783386E0,-6.388714600E0,3.282973022E0,1.121718813E1
1.591512462E1,8.495283966E0,-6.280190277E0,2.965333557E0,1.097286848E1
1.592510963E1,8.348738708E0,-6.301296387E0,2.648143158E0,1.078983023E1
1.593509462E1,8.231831818E0,-6.292165375E0,2.573149109E0,1.067593071E1
1.594507963E1,8.176297302E0,-6.476581879E0,2.643203430E0,1.076031946E1
1.595506462E1,8.109386444E0,-6.752158813E0,2.831661530E0,1.092575417E1
1.596504962E1,7.839497681E0,-6.954687653E0,3.116219788E0,1.093326255E1
1.597503463E1,7.492968292E0,-7.041207733E0,3.414399719E0,1.083426535E1
1.598501962E1,7.139403534E0,-7.030430145E0,3.631598053E0,1.065769840E1
1.599500463E1,7.071145477E0,-7.032076721E0,3.775598602E0,1.066331778E1
1.600498962E1,7.303911438E0,-6.879244537E0,3.884871368E0,1.075933796E1
1.601497462E1,7.640261993E0,-6.644382935E0,3.858675842E0,1.083562675E1
1.602496062E1,8.161627808E0,-6.404731293E0,3.640878754E0,1.099494200E1
1.603494562E1,8.910969543E0,-6.160738678E0,3.412004700E0,1.135789837E1
1.604493063E1,9.846524048E0,-5.875431976E0,3.407214661E0,1.196176611E1
1.605491562E1,1.063837738E1,-5.619464264E0,3.530408478E0,1.253862975E1
1.606490063E1,1.086560486E1,-5.550008698E0,3.425177307E0,1.267264002E1
1.607488562E1,1.074300980E1,-5.578748932E0,3.287613373E0,1.254364783E1
1.608487062E1,1.099373840E1,-5.781577148E0,3.292403412E0,1.285024664E1
1.609485563E1,1.107726471E1,-6.209836578E0,3.308420105E0,1.312301442E1
1.610484062E1,1.079644867E1,-6.500382385E0,3.509601746E0,1.308187981E1
1.611482563E1,1.056937088E1,-6.793323212E0,3.938010864E0,1.316695753E1
1.612481062E1,1.021984772E1,-7.232060852E0,4.371060333E0,1.326100147E1
1.613479562E1,9.749226379E0,-7.478298798E0,4.609364777E0,1.312320889E1
1.614478063E1,9.563612366E0,-7.463928680E0,4.863087158E0,1.306990932E1
1.615476562E1,9.642049255E0,-7.141948242E0,5.235512695E0,1.309149081E1
1.616475063E1,9.679770813E0,-6.669380951E0,5.234614563E0,1.286778127E1
1.617473563E1,9.621092834E0,-6.063590698E0,4.989574127E0,1.241887312E1
1.618472062E1,9.219178619E0,-5.602699127E0,4.477638702E0,1.168044264E1
1.619470563E1,8.853938141E0,-5.242398376E0,4.089046783E0,1.107227461E1
1.620469062E1,8.768316193E0,-5.183271332E0,4.353397064E0,1.107708159E1
1.621467563E1,8.817713470E0,-5.143005066E0,5.166506195E0,1.144095093E1
1.622466063E1,9.091194763E0,-5.056185608E0,6.069877625E0,1.204401301E1
1.623464663E1,8.843160553E0,-5.001698914E0,6.390810242E0,1.200253874E1
1.624463162E1,7.940238190E0,-4.965174866E0,5.415588226E0,1.081799149E1
1.625461662E1,7.127578125E0,-5.110073547E0,4.320016479E0,9.776388084E0
1.626460163E1,7.084467773E0,-5.113366699E0,4.399351501E0,9.782151924E0
1.627458662E1,6.560257874E0,-4.014801178E0,4.726870422E0,9.027674997E0
1.628457163E1,5.817951508E0,-3.172652435E0,4.296814728E0,7.897904787E0
1.629455662E1,5.029091949E0,-2.768792267E0,3.966751099E0,6.978043474E0
1.630454162E1,4.572691040E0,-2.276016998E0,4.279301147E0,6.663495707E0
1.631452663E1,4.571194153E0,-1.576222229E0,5.456153870E0,7.290398312E0
1.632451162E1,4.366869049E0,-9.171427917E-1,6.916067963E0,8.230594891E0
1.633449663E1,4.088298340E0,-3.957769775E-1,7.763006744E0,8.782658848E0
1.634448163E1,4.041146393E0,-1.851649475E-1,8.049061890E0,9.008470876E0
1.635446858E1,3.806434479E0,-2.152523804E-1,7.843389587E0,8.720896585E0
1.636445358E1,3.736380157E0,-4.017645264E-1,7.484885101E0,8.375288437E0
1.637443858E1,3.785627747E0,-6.674620056E-1,7.338190155E0,8.284052011E0
1.638442358E1,3.795207825E0,-8.554710388E-1,7.195536804E0,8.179925613E0
1.639440858E1,3.805835724E0,-8.785231018E-1,6.899452515E0,7.928343673E0
1.640439358E1,3.876339111E0,-6.804849243E-1,6.559659119E0,7.649718452E0
1.641437858E1,4.134402466E0,-3.423381042E-1,6.081253967E0,7.361530340E0
1.642436358E1,4.360133057E0,2.694396973E-3,5.626948700E0,7.118519453E0
1.643434858E1,4.303999786E0,2.447410583E-1,5.536686401E0,7.017065530E0
1.644433458E1,4.123624878E0,4.273612976E-1,5.727539520E0,7.070475852E0
1.645431958E1,3.858226776E0,5.129832458E-1,6.059249725E0,7.201636821E0
1.646430458E1,3.506607971E0,4.165837097E-1,6.547384644E0,7.438957395E0
1.647428958E1,3.200195160E0,1.923500061E-1,7.144642639E0,7.830974781E0
1.648427458E1,3.171454926E0,1.784289551E-1,7.679480438E0,8.310498363E0
1.649425958E1,3.140619049E0,2.074685669E-1,7.848928070E0,8.456488814E0
1.650424458E1,3.132236481E0,2.607577515E-1,7.926317139E0,8.526746352E0
1.651422958E1,3.236120453E0,4.484674072E-1,8.114625549E0,8.747613755E0
1.652421458E1,3.187172241E0,6.256988525E-1,8.352929993E0,8.962198693E0
1.653419958E1,3.168012085E0,7.189549255E-1,8.682394867E0,9.270230708E0
1.654418458E1,3.032693481E0,8.252339172E-1,9.066047058E0,9.595386914E0
1.655416958E1,2.770438843E0,7.969427490E-1,9.351054382E0,9.785329181E0
1.656415458E1,2.518662415E0,7.138655090E-1,9.350305939E0,9.709865368E0
1.657413958E1,2.360291748E0,6.843768311E-1,9.191336517E0,9.514200742E0
1.658412458E1,2.381697235E0,7.162605286E-1,9.130263519E0,9.462939437E0
1.659410958E1,2.508333893E0,7.222480774E-1,9.166338501E0,9.530747228E0
1.660409458E1,2.735112305E0,8.213420105E-1,9.248816986E0,9.679672394E0
1.661407958E1,2.838098145E0,1.165326691E0,9.019942932E0,9.527442357E0
1.662406458E1,3.017275543E0,1.397942963E0,8.511450348E0,9.137996676E0
1.663404958E1,3.342998199E0,1.662442932E0,8.059689789E0,8.882451968E0
1.664403558E1,3.733087006E0,2.009271698E0,7.903714142E0,8.968935755E0
1.665402058E1,4.085603943E0,2.264041901E0,7.905061340E0,9.181940977E0
1.666400558E1,4.223616943E0,2.316882019E0,7.939938812E0,9.287061468E0
1.667399058E1,4.032763824E0,2.215393066E0,7.917485504E0,9.157386484E0
1.668397558E1,3.851341095E0,2.054328003E0,7.977211304E0,9.093348776E0
1.669396058E1,3.663930817E0,1.978585510E0,8.165370026E0,9.165830966E0
1.670394558E1,3.481011200E0,1.888323212E0,8.365952911E0,9.255937102E0
1.671393058E1,3.342698822E0,1.792372742E0,8.561446381E0,9.364005531E0
1.672391558E1,3.299738159E0,1.885179749E0,8.694519653E0,9.488774768E0
1.673390058E1,3.308270416E0,2.057022400E0,8.655750275E0,9.491997004E0
1.674388558E1,3.196003876E0,2.171983337E0,8.506211243E0,9.342782353E0
1.675387058E1,3.155587921E0,2.245779877E0,8.262967072E0,9.125671877E0
