"Time (s)","Acceleration x (m/s^2)","Acceleration y (m/s^2)","Acceleration z (m/s^2)","Absolute acceleration (m/s^2)"
2.050708514E-3,-2.566712494E0,5.089266815E0,7.532486115E0,9.446004277E0
1.208870835E-2,-2.777025146E0,4.997657318E0,7.226971436E0,9.215072624E0
2.212770842E-2,-2.968477020E0,4.814138947E0,6.926396484E0,8.942189770E0
3.216570849E-2,-3.063679047E0,4.678670654E0,6.728058929E0,8.748877948E0
4.220370855E-2,-3.052153015E0,4.691244507E0,6.787185974E0,8.797119216E0
5.224170838E-2,-2.745740204E0,4.863386536E0,7.316934357E0,9.204843629E0
6.228070846E-2,-2.318079529E0,5.016967163E0,7.910150757E0,9.649556322E0
7.231870852E-2,-1.953138428E0,5.029840393E0,8.273295593E0,9.877320693E0
8.235670836E-2,-1.741628265E0,5.029541016E0,8.436306610E0,9.975009828E0
9.239570843E-2,-1.775308228E0,5.069058838E0,8.580606537E0,1.012293857E1
1.024337085E-1,-2.097438354E0,4.934937744E0,8.484805756E0,1.003717026E1
1.124717083E-1,-1.829645233E0,4.702171783E0,7.995173950E0,9.454143412E0
1.225097084E-1,-1.845811615E0,4.592300262E0,7.838749237E0,9.270503321E0
1.325487085E-1,-2.185006256E0,4.539909210E0,7.841293945E0,9.320457001E0
1.425867085E-1,-2.478096771E0,4.429438934E0,7.752528534E0,9.266206967E0
1.526247084E-1,-2.671943665E0,4.294569397E0,7.692653046E0,9.206493368E0
1.626627084E-1,-2.835852814E0,4.100572815E0,7.708220673E0,9.180055802E0
1.727017085E-1,-2.755170593E0,3.938010864E0,7.595804443E0,8.988611667E0
1.827397083E-1,-2.632874908E0,3.883224792E0,7.438631287E0,8.794583588E0
1.927777084E-1,-2.602188721E0,4.039499817E0,7.338040466E0,8.771304509E0
2.028157085E-1,-2.442171478E0,4.225862274E0,7.321724396E0,8.799418254E0
2.128547085E-1,-2.231260071E0,4.208498383E0,7.321425018E0,8.734600417E0
2.228927084E-1,-1.984872437E0,4.057911530E0,7.201075287E0,8.500697022E0
2.329307084E-1,-1.891167297E0,3.855382690E0,6.965465240E0,8.182798754E0
2.429697085E-1,-2.049388275E0,3.579656067E0,6.446494446E0,7.653183684E0
2.530077084E-1,-2.120041351E0,3.316652985E0,5.992937622E0,7.170081150E0
2.630457084E-1,-2.273322601E0,3.312461700E0,5.972280579E0,7.197814493E0
2.730837085E-1,-2.273921356E0,3.545377350E0,6.494694214E0,7.740896060E0
2.831227083E-1,-1.741628265E0,2.700683899E0,7.178322601E0,7.864812643E0
2.931607084E-1,-1.517095184E0,2.562072144E0,7.685917053E0,8.242518572E0
3.031987085E-1,3.632945251E-1,2.074535980E0,7.989934845E0,8.262853095E0
3.132377085E-1,2.499951324E0,1.529818726E0,9.037456512E0,9.500827447E0
3.232757084E-1,3.577261047E0,1.005758514E0,9.130712585E0,9.857903383E0
3.333137084E-1,4.208947449E0,-8.017327881E-1,7.751181335E0,8.856569662E0
3.433517085E-1,3.816463623E0,-2.142195282E0,6.081703033E0,7.492763642E0
3.533907083E-1,2.276615753E0,-2.481240234E0,4.318220215E0,5.475998376E0
3.634287084E-1,9.473799133E-1,-2.278711395E0,3.775598602E0,4.510565278E0
3.734667085E-1,7.682025146E-1,-1.901196442E0,4.108356628E0,4.591652992E0
3.835047085E-1,2.680176544E0,-1.322499847E0,4.426145782E0,5.340703946E0
3.935437084E-1,5.432203674E0,-2.387535095E-1,4.947361908E0,7.351342044E0
4.035817084E-1,6.446195068E0,5.785469055E-1,5.035079498E0,8.200010545E0
4.136197085E-1,5.525609436E0,6.574328613E-1,4.737648010E0,7.308206776E0
4.236587083E-1,4.049079895E0,3.655398560E-1,4.378395081E0,5.974864924E0
4.336967084E-1,1.003513184E0,-8.970845032E-1,3.939657440E0,4.163255945E0
4.437347085E-1,-4.328548737E0,-2.443219299E0,2.831062775E0,5.720189782E0
4.537727085E-1,-2.173180847E0,-1.410965881E0,1.462458801E-1,2.595173900E0
4.638117084E-1,2.068548431E0,-4.477189636E-1,-1.389111328E0,2.531595379E0
4.738497084E-1,2.406695251E0,-2.574645996E-1,-1.309027863E0,2.751731091E0
4.838877085E-1,1.910327454E0,-8.128097534E-1,-9.216334534E-1,2.271435427E0
4.939257083E-1,2.934797058E0,-2.066153412E0,1.842668152E-1,3.593880626E0
5.039647084E-1,4.646487579E0,-2.318678284E0,2.518363037E0,5.771331579E0
5.140027085E-1,4.990921326E0,-1.459614716E0,4.773722992E0,7.058909406E0
5.240407086E-1,4.268074493E0,-1.565594330E0,5.886059875E0,7.437287566E0
5.340797084E-1,3.245850220E0,-2.539918213E0,5.699398041E0,7.033481798E0
5.441177085E-1,2.123933258E0,-3.504063263E0,5.131778412E0,6.566940041E0
5.541557085E-1,1.001716919E0,-3.374432831E0,4.735851746E0,5.900722453E0
5.641937084E-1,1.279090118E0,-2.593057709E0,5.038971405E0,5.809582828E0
5.742327084E-1,1.633553009E0,-1.771416321E0,5.152285767E0,5.687922278E0
5.842707085E-1,1.891915741E0,-1.522034912E0,4.935087433E0,5.500093037E0
5.943087083E-1,2.519111481E0,-1.559906158E0,4.388573914E0,5.295168635E0
6.043467084E-1,2.377206573E0,-2.356250153E0,4.052223358E0,5.255810120E0
6.143857085E-1,1.246457977E0,-3.786675568E0,3.658991089E0,5.411172251E0
6.244237085E-1,2.897973633E-1,-4.822371826E0,2.629581757E0,5.500359330E0
6.344617084E-1,1.270108795E0,-6.016887817E0,1.415306854E0,6.310246338E0
6.445007084E-1,4.561614075E0,-7.331304474E0,1.091829529E0,8.703357971E0
6.545387085E-1,9.760003967E0,-8.202193451E0,2.204166412E0,1.293800620E1
6.645767083E-1,1.692485458E1,-9.501192169E0,5.139562225E0,2.007830808E1
6.746147084E-1,2.447665054E1,-1.128952332E1,1.023092468E1,2.883108701E1
6.846537085E-1,2.888318710E1,-1.331765579E1,1.633253632E1,3.575402349E1
6.946917085E-1,2.911939590E1,-1.625918884E1,2.073054062E1,3.926901774E1
7.047297084E-1,2.704710526E1,-1.953138428E1,2.286809555E1,4.044713424E1
7.147677084E-1,2.472618164E1,-2.108350662E1,2.459176117E1,4.075111075E1
7.248067085E-1,2.386577087E1,-2.143752045E1,2.483006561E1,4.056691337E1
7.348447083E-1,2.341880035E1,-2.154484726E1,2.291195435E1,3.921196635E1
7.448827084E-1,2.243579453E1,-2.182296890E1,2.009466293E1,3.719411682E1
7.549207085E-1,2.076167587E1,-2.248668869E1,1.803629333E1,3.552472703E1
7.649597083E-1,1.832923416E1,-2.329306183E1,1.635918091E1,3.385484241E1
7.749977084E-1,1.759785507E1,-2.421005493E1,1.561462921E1,3.375837538E1
7.850357085E-1,1.967837860E1,-2.407428726E1,1.765024612E1,3.575389601E1
7.950747085E-1,2.146371597E1,-2.181503540E1,2.115131561E1,3.720168041E1
8.051127084E-1,2.202654556E1,-1.897499130E1,2.269475601E1,3.688185129E1
8.151507084E-1,1.991398865E1,-1.575877945E1,2.124861328E1,3.311207695E1
8.251887085E-1,1.614497635E1,-1.244841339E1,1.758602966E1,2.692381282E1
8.352278334E-1,1.196611633E1,-9.519304504E0,1.301184174E1,2.007767725E1
8.452658334E-1,7.936795349E0,-7.245083771E0,8.590336304E0,1.375782821E1
8.553038335E-1,3.859124908E0,-4.430636444E0,5.802084503E0,8.257576457E0
8.653418333E-1,4.851411438E-1,-1.496138763E0,4.695136414E0,4.951575413E0
8.753808334E-1,-1.985471191E0,9.635462952E-1,4.705764313E0,5.197570113E0
8.854188335E-1,-3.509302368E0,2.498304749E0,4.988376617E0,6.590950691E0
8.954568335E-1,-4.425846405E0,3.435356140E0,5.257516937E0,7.683181148E0
9.054958334E-1,-4.944218445E0,4.551884308E0,5.148094482E0,8.465685063E0
9.155338334E-1,-5.054688721E0,5.276377716E0,4.418960724E0,8.539160014E0
9.255718335E-1,-5.181026001E0,5.096751251E0,3.205883331E0,7.943399252E0
9.356098333E-1,-6.811435547E0,3.922293549E0,1.146465912E0,7.943199921E0
9.456488334E-1,-1.023197250E1,2.498304749E-1,-2.219135284E0,1.047283333E1
9.556868335E-1,-1.356883347E1,-5.011428680E0,-5.679339752E0,1.553970910E1
9.657248335E-1,-1.433314407E1,-8.817414093E0,-8.101153564E0,1.867657622E1
9.757638334E-1,-1.076770844E1,-1.051593201E1,-9.082512817E0,1.757897636E1
9.858018334E-1,-3.745660858E0,-1.072639435E1,-8.408614197E0,1.413471980E1
9.958398335E-1,4.313579865E0,-1.025981461E1,-6.162684631E0,1.272200648E1
1.005877833E0,1.157048904E1,-1.002165985E1,-2.983146515E0,1.559516098E1
1.015916833E0,1.732212845E1,-8.711284790E0,1.193468170E0,1.942593583E1
1.025954833E0,1.990845016E1,-5.791157227E0,5.785918121E0,2.152581563E1
1.035992833E0,1.882934418E1,-3.290457458E0,8.775052185E0,2.103266158E1
1.046030833E0,1.566447556E1,-2.669548645E0,9.017248535E0,1.827055159E1
1.056069833E0,1.220906113E1,-3.273991699E0,7.205266571E0,1.454977875E1
1.066107834E0,8.532107391E0,-3.670367432E0,4.764292603E0,1.043872299E1
1.076145833E0,5.481002197E0,-3.431314545E0,2.759810944E0,7.030779547E0
1.086183833E0,3.425476685E0,-2.791245575E0,1.297651520E0,4.605305836E0
1.096222833E0,2.449655914E0,-1.784888306E0,3.230282593E-1,3.048112140E0
1.106260833E0,2.317780151E0,-5.998027039E-1,-2.233355713E-1,2.404526334E0
1.116298833E0,2.409239960E0,3.439846802E-1,-6.557862854E-1,2.520479775E0
1.126337833E0,2.400108948E0,8.559201050E-1,-1.361119537E0,2.888904391E0
1.136375834E0,1.967957611E0,1.111887817E0,-2.159559174E0,3.126155387E0
1.146413833E0,1.563798065E0,1.343007202E0,-2.585423584E0,3.306591575E0
1.156451833E0,1.264121246E0,1.510359192E0,-2.431244202E0,3.128919267E0
1.166490834E0,1.185834045E0,1.835183716E0,-1.946851501E0,2.926488070E0
1.176528833E0,1.279090118E0,2.390379181E0,-1.677561493E0,3.188133737E0
1.186566833E0,1.353784790E0,3.027604065E0,-1.817969513E0,3.782080483E0
1.196604833E0,1.625619507E0,3.874093781E0,-1.886976013E0,4.605640007E0
1.206643834E0,1.379381561E0,4.467310181E0,-2.228715363E0,5.179452279E0
1.216681833E0,2.088157654E-1,4.649481354E0,-2.662213898E0,5.361778037E0
1.226719833E0,-1.409768372E0,4.627028046E0,-2.913241882E0,5.646575392E0
1.236758834E0,-3.448528748E0,4.528083801E0,-2.910248108E0,6.392608035E0
1.246796833E0,-4.928201752E0,4.177512817E0,-3.163371735E0,7.193448865E0
1.256834833E0,-5.252876587E0,3.242407379E0,-2.606380005E0,6.700681665E0
1.266872833E0,-4.742737427E0,2.552641754E0,-6.692582703E-1,5.427471313E0
1.276911833E0,-2.451152802E0,2.719394989E0,1.403631134E0,3.920897796E0
1.286949833E0,9.360035706E-1,2.468965759E0,3.120111694E0,4.087418695E0
1.296987833E0,3.911066895E0,1.087787933E0,4.961282959E0,6.410464526E0
1.307025834E0,5.586981812E0,-2.085163879E0,5.867348785E0,8.365886441E0
1.317064833E0,6.435417480E0,-9.593400421E0,4.399800568E0,1.236147948E1
1.327102833E0,6.885381775E0,-2.069985443E1,1.449585571E0,2.186306827E1
1.337140833E0,8.765771484E0,-3.021302170E1,-1.983824615E0,3.152143699E1
1.347179833E0,1.548335220E1,-3.669020233E1,-5.302872620E0,4.017493747E1
1.357217833E0,2.650463333E1,-4.103716278E1,-7.725285187E0,4.945932014E1
1.367255833E0,3.692745895E1,-4.313639740E1,-8.871900787E0,5.747257284E1
1.377293834E0,3.875979858E1,-3.894047287E1,-6.081253967E0,5.527806132E1
1.387332833E0,3.447301300E1,-3.463063522E1,-1.812281342E0,4.889738117E1
1.397370833E0,2.970707382E1,-3.683569977E1,-2.010618896E0,4.736477173E1
1.407408834E0,2.749198013E1,-3.999023987E1,-6.420897675E0,4.895156977E1
1.417446833E0,2.738525208E1,-4.045173019E1,-1.154115005E1,5.019454803E1
1.427485833E0,2.810944611E1,-3.928281097E1,-1.511392044E1,5.061334596E1
1.437523833E0,2.661914520E1,-3.815086487E1,-1.588242233E1,4.915606494E1
1.447561834E0,2.062066910E1,-3.363640274E1,-1.245904129E1,4.137447635E1
1.457599833E0,1.506182877E1,-2.682287155E1,-8.175249481E0,3.183017166E1
1.467638833E0,1.235515732E1,-2.202549774E1,-5.887257385E0,2.593129890E1
1.477676834E0,9.918524323E0,-1.707903397E1,-3.793261871E0,2.011117504E1
1.487714833E0,9.204808502E0,-1.176912598E1,-1.831441498E0,1.505307290E1
1.497753833E0,8.065078583E0,-6.708150330E0,1.182540894E-1,1.049088926E1
1.507791833E0,6.009553070E0,-1.908980255E0,2.023492126E0,6.622194055E0
1.517829834E0,3.499123535E0,2.586321716E0,4.660408630E0,6.375918298E0
1.527867833E0,1.988764343E0,4.985981598E0,6.123017120E0,8.142882460E0
1.537906833E0,9.916877747E-1,5.257367249E0,6.442153473E0,8.374048985E0
1.547944834E0,-2.308200073E-1,3.945195923E0,5.993087311E0,7.178784316E0
1.557982833E0,-2.311193848E0,2.045346680E0,4.848417664E0,5.747365821E0
1.568020833E0,-4.884941711E0,2.092648315E-1,3.325484619E0,5.913145969E0
1.578059833E0,-7.519762573E0,-1.253193970E0,1.609004059E0,7.791419533E0
1.588097833E0,-9.440119171E0,-2.227667542E0,-7.223977661E-1,9.726263988E0
1.598135833E0,-1.035262161E1,-2.714754639E0,-3.473227386E0,1.125210982E1
1.608174833E0,-9.873318329E0,-2.815495148E0,-5.551206207E0,1.167156023E1
1.618212834E0,-8.202492828E0,-3.017275543E0,-6.111640778E0,1.066475472E1
1.628250833E0,-5.682632904E0,-3.372935944E0,-5.574707336E0,8.645598619E0
1.638288833E0,-2.655777283E0,-3.534899139E0,-4.159101105E0,6.070155426E0
1.648327834E0,2.871029663E-1,-3.390449524E0,-2.229014740E0,4.067687648E0
1.658365833E0,2.305206299E0,-2.968177643E0,-2.073188782E-1,3.763912289E0
1.668403833E0,3.332669678E0,-2.549647980E0,1.668580170E0,4.515700586E0
1.678441833E0,3.625161438E0,-1.971400452E0,3.350632324E0,5.315538746E0
1.688480834E0,3.559148712E0,-1.251248016E0,4.527934113E0,5.893670205E0
1.698518833E0,3.282224579E0,-7.330256653E-1,5.119503937E0,6.125328185E0
1.708556833E0,2.870430908E0,-6.369255066E-1,4.922513580E0,5.733776037E0
1.718594834E0,2.854264526E0,-1.197809143E0,3.989653473E0,5.049644301E0
1.728633833E0,3.071911926E0,-1.617087250E0,2.881208496E0,4.511427319E0
1.738671833E0,2.902164917E0,-1.863474884E0,1.906435547E0,3.940760884E0
1.748709833E0,2.729424133E0,-2.314936066E0,1.555565186E0,3.902366991E0
1.758748833E0,1.941462708E0,-2.684068451E0,1.322948914E0,3.567028837E0
1.768786833E0,2.751278687E-1,-2.978506165E0,7.093748474E-1,3.074151426E0
1.778824833E0,-1.244362335E0,-3.124153290E0,-7.274871826E-2,3.363638473E0
1.788862834E0,-2.520758057E0,-2.990930328E0,-7.541317749E-1,3.983541156E0
1.798901833E0,-3.894601135E0,-2.604583740E0,-1.590891724E0,4.948000701E0
1.808939833E0,-5.004393311E0,-2.099533997E0,-2.203268280E0,5.857165400E0
1.818977833E0,-5.324727173E0,-1.735640717E0,-2.047891388E0,5.963139047E0
1.829015833E0,-5.207071838E0,-1.429527283E0,-1.241069183E0,5.540523270E0
1.839055208E0,-5.069507904E0,-1.142124939E0,-4.649331665E-1,5.217329069E0
1.849093208E0,-4.665797424E0,-8.616082764E-1,-1.646575928E-3,4.744685146E0
1.859131208E0,-3.935017090E0,-6.071374512E-1,2.014810181E-1,3.986674050E0
1.869170208E0,-2.436333618E0,-5.164260864E-2,-4.849914551E-2,2.437363458E0
1.879208209E0,-2.845582581E-1,9.382489014E-1,-8.735833740E-1,1.313176422E0
1.889246208E0,2.158062286E0,2.488275604E0,-1.354084167E0,3.561220612E0
1.899284208E0,4.076622620E0,4.425846405E0,-1.382225647E0,6.173938461E0
1.909323208E0,5.024002533E0,6.011948090E0,-4.869374084E-1,7.849919065E0
1.919361208E0,4.907694397E0,7.324867859E0,2.440375214E0,9.148474443E0
1.929399208E0,3.052751770E0,9.113797760E0,5.515580292E0,1.108161671E1
1.939437208E0,6.908134460E-1,1.030082932E1,7.426506500E0,1.271759830E1
1.949476209E0,7.411088562E-1,1.020338196E1,7.578290863E0,1.273140755E1
1.959514208E0,4.355343018E0,9.765841827E0,5.066214752E0,1.183246430E1
1.969552208E0,1.023062531E1,8.409362640E0,7.556286621E-1,1.326476720E1
1.979590209E0,1.741343857E1,4.791985016E0,-4.599185944E0,1.863715307E1
1.989629208E0,2.467992783E1,-4.001179504E-1,-8.903934174E0,2.624002621E1
1.999667208E0,3.196228409E1,-5.002597046E0,-1.073492661E1,3.408595357E1
2.009705208E0,3.865546555E1,-8.283773804E0,-1.078597046E1,4.097808053E1
2.019744209E0,4.623630112E1,-1.326691132E1,-1.157917099E1,4.947609198E1
2.029782208E0,5.016173813E1,-2.055750046E1,-1.525343033E1,5.631587639E1
2.039820208E0,5.039974319E1,-2.756847107E1,-1.915641403E1,6.055677427E1
2.049858209E0,5.019975906E1,-2.949945557E1,-1.818882614E1,6.100054988E1
2.059897208E0,4.834496613E1,-2.640733566E1,-1.134760254E1,5.624367707E1
2.069935208E0,4.623181046E1,-2.663007248E1,-3.024610291E0,5.343865011E1
2.079973208E0,4.348771683E1,-2.718257355E1,1.042581940E0,5.129484181E1
2.090011209E0,4.076832184E1,-2.571667191E1,1.151405640E0,4.821544373E1
2.100050208E0,3.607872391E1,-2.334575226E1,-1.210083618E0,4.299026366E1
2.110088208E0,2.896012711E1,-2.032608170E1,-5.453160095E0,3.579909935E1
2.120126209E0,2.134606064E1,-1.746882339E1,-9.745334473E0,2.925381410E1
2.130164208E0,1.301273987E1,-1.398392029E1,-1.269480103E1,2.293554880E1
2.140203208E0,4.245621185E0,-8.533604279E0,-1.445708633E1,1.731632312E1
2.150241208E0,-4.108057251E0,-4.899311829E-1,-1.621083939E1,1.673043575E1
2.160279208E0,-9.844578094E0,7.114255829E0,-2.107392654E1,2.432362501E1
2.170318208E0,-5.396428070E0,6.465654602E0,-2.649669983E1,2.780289962E1
2.180356208E0,3.879632263E0,2.129172363E0,-2.106210114E1,2.152201258E1
2.190394209E0,9.380393372E0,4.492457886E0,-8.122259674E0,1.319640329E1
2.200432208E0,1.158396103E1,9.379195862E0,2.488125916E0,1.511119581E1
2.210471208E0,1.222492813E1,1.132874176E1,8.850345612E0,1.887108569E1
2.220509209E0,1.118144806E1,1.060903839E1,1.233899094E1,1.974404147E1
2.230547208E0,9.565109253E0,8.872499542E0,1.365879639E1,1.888849602E1
2.240585208E0,6.826853485E0,6.489754486E0,1.234093689E1,1.552486925E1
2.250624208E0,2.614612885E0,2.288141785E0,8.837173004E0,9.495652693E0
2.260662209E0,-1.693278809E0,-2.406695251E0,5.553750916E0,6.285182924E0
2.270700208E0,-5.588628387E0,-5.448519745E0,2.833008728E0,8.303316995E0
2.280738208E0,-8.037984924E0,-6.491251373E0,2.679428101E-2,1.033180836E1
2.290777209E0,-8.547675018E0,-6.285728760E0,-2.197729797E0,1.083527344E1
2.300815208E0,-6.856491852E0,-5.548362122E0,-2.748733978E0,9.238578962E0
2.310853208E0,-4.013304291E0,-4.630321198E0,-1.162183228E0,6.236758419E0
2.320892208E0,-1.224004669E0,-3.983366547E0,1.501677246E0,4.429495572E0
2.330930208E0,1.065783691E-1,-3.805087280E0,3.728446655E0,5.328354588E0
2.340968208E0,-1.314266968E-1,-3.789819031E0,5.059029694E0,6.322482321E0
2.351006208E0,-1.179098053E0,-3.820355530E0,5.591622162E0,6.873981888E0
2.361045209E0,-2.921175385E0,-4.308191071E0,5.287005615E0,7.419312927E0
2.371083208E0,-4.985532532E0,-5.004093933E0,4.306095428E0,8.272783604E0
2.381121208E0,-7.341632996E0,-5.657185822E0,3.256478119E0,9.823847322E0
2.391159208E0,-9.493558044E0,-6.938371582E0,2.118245087E0,1.194803778E1
2.401198208E0,-1.077145065E1,-8.424481201E0,5.041516113E-1,1.368393955E1
2.411236208E0,-1.093071945E1,-9.064101105E0,-9.873468018E-1,1.423423374E1
2.421274208E0,-9.256750488E0,-8.785081329E0,-1.914818115E0,1.290471278E1
2.431312209E0,-6.275699615E0,-8.322393494E0,-2.171384583E0,1.064713812E1
2.441351208E0,-2.991978149E0,-7.798333282E0,-1.665287018E0,8.516989849E0
2.451389208E0,1.097218323E-1,-7.031927032E0,-8.454418945E-1,7.083417866E0
2.461427209E0,2.594105530E0,-6.162385254E0,8.337661743E-2,6.686652913E0
2.471466208E0,4.542603607E0,-5.267097015E0,9.574090576E-1,7.020982168E0
2.481504208E0,5.934708710E0,-4.370012512E0,1.578467560E0,7.537196870E0
2.491542208E0,6.697522430E0,-3.313509521E0,1.857786713E0,7.699839188E0
2.501580209E0,6.780150604E0,-2.200424194E0,1.963466949E0,7.393748123E0
2.511619208E0,6.300997009E0,-1.407073975E0,1.677860870E0,6.670654959E0
2.521657208E0,5.454357605E0,-1.021775208E0,1.070573730E0,5.651563462E0
2.531695209E0,4.494403839E0,-7.002438354E-1,4.234693909E-1,4.568296578E0
2.541733208E0,3.496578827E0,-3.240760803E-1,-1.679507446E-1,3.515579078E0
2.551772208E0,2.804717560E0,-1.055305481E-1,-4.659809875E-1,2.845121363E0
2.561810208E0,2.586770782E0,-1.344204712E-1,-4.120930481E-1,2.622836751E0
2.571848209E0,2.847678223E0,-3.820056152E-1,4.279600525E-1,2.904883708E0
2.581887208E0,3.151546326E0,-6.345304871E-1,1.961820374E0,3.766113695E0
2.591925208E0,2.959046631E0,-2.483335876E-1,3.580254822E0,4.651435383E0
2.601963209E0,2.129172363E0,1.241817627E0,4.179907837E0,4.852537016E0
2.612001208E0,4.954696655E-1,3.636837158E0,3.013383636E0,4.748953110E0
2.622040208E0,5.538482666E-3,5.822891235E0,1.352287903E0,5.977857106E0
2.632078208E0,4.608915710E-1,6.903194733E0,7.812254333E-1,6.962530555E0
2.642116208E0,2.316133575E0,7.592511292E0,3.414399719E-1,7.945268007E0
2.652154208E0,6.249953156E0,8.177794189E0,-3.273692322E-1,1.029783486E1
2.662193208E0,1.307620789E1,8.151898041E0,-5.950126648E-1,1.542059319E1
2.672231209E0,2.200768478E1,7.032675476E0,-1.721569977E0,2.316809265E1
2.682269208E0,3.161785034E1,3.363056488E0,-5.059927826E0,3.219629604E1
2.692307208E0,3.929014572E1,-3.519930267E0,-8.718918915E0,4.039956692E1
2.702346209E0,4.199816437E1,-1.328442490E1,-9.870923309E0,4.514152060E1
2.712384208E0,4.200894196E1,-2.561129105E1,-8.907826080E0,5.000038799E1
2.722422208E0,4.213797363E1,-3.779924606E1,-5.468727722E0,5.687089596E1
2.732460208E0,4.090618515E1,-4.003394897E1,1.670975189E0,5.726102699E1
2.742499209E0,4.129462738E1,-3.274605423E1,8.942703552E0,5.345579730E1
2.752537208E0,4.486365555E1,-3.316997269E1,1.021820114E1,5.672218536E1
2.762575208E0,4.425726654E1,-3.761482956E1,7.547155609E0,5.857081698E1
2.772614209E0,4.125974991E1,-4.207345779E1,8.143066406E-1,5.893391136E1
2.782652208E0,3.598217468E1,-4.327171600E1,-4.646487579E0,5.646900165E1
2.792690208E0,2.972458740E1,-3.974594788E1,-5.254373474E0,4.990891613E1
2.802728208E0,2.526850388E1,-3.489962585E1,-2.724035339E0,4.317292602E1
2.812767208E0,2.241858032E1,-2.918870178E1,-2.791694641E-1,3.680558369E1
2.822805208E0,1.971295670E1,-2.309307770E1,2.711611176E0,3.048349938E1
2.832842708E0,1.577988556E1,-1.618374573E1,5.191504211E0,2.319202729E1
2.842880708E0,1.015563126E1,-7.506440277E0,5.294789429E0,1.369373167E1
2.852919708E0,3.902235260E0,2.015858002E0,4.409979401E0,6.224069555E0
2.862957709E0,-6.988966370E-1,9.607321472E0,3.100652161E0,1.011944298E1
2.872995708E0,-2.501148834E0,1.242625946E1,2.195783844E0,1.286425810E1
2.883033708E0,-2.543211365E0,1.150747009E1,2.248623962E0,1.199775403E1
2.893072709E0,-2.890788574E0,8.962013397E0,1.986668701E0,9.623990609E0
2.903110708E0,-3.845503235E0,4.825664978E0,1.429676971E0,6.333949309E0
2.913148708E0,-5.294939117E0,-1.754351807E-1,2.655477905E-1,5.304495583E0
2.923187708E0,-7.465275879E0,-3.631448364E0,-1.182690582E0,8.385494510E0
2.933225709E0,-9.729916534E0,-4.301155701E0,-2.549198914E0,1.093936155E1
2.943263708E0,-1.029409332E1,-3.302582245E0,-3.471431122E0,1.135456916E1
2.953301708E0,-8.990753632E0,-2.477797394E0,-3.080893250E0,9.821661469E0
2.963340709E0,-6.310577087E0,-2.640209656E0,-2.009122009E0,7.129562501E0
2.973378708E0,-3.493734741E0,-2.869682465E0,-6.367758179E-1,4.565823401E0
2.983416708E0,-9.773176575E-1,-2.443069611E0,9.940827942E-1,2.812817009E0
2.993454708E0,1.234033813E0,-1.773661652E0,2.899171143E0,3.615786003E0
3.003493708E0,2.957400055E0,-1.240919495E0,4.551285553E0,5.567790986E0
3.013531708E0,4.126169586E0,-8.030799866E-1,5.661676483E0,7.051580923E0
3.023569708E0,4.756808167E0,-3.007246399E-1,5.675896912E0,7.411711340E0
3.033607709E0,5.026098175E0,-3.442840576E-3,4.496349792E0,6.743799832E0
3.043646708E0,5.132975922E0,-1.356179810E-1,2.827170868E0,5.861631954E0
3.053684708E0,4.877906342E0,-3.721261597E-1,1.207688599E0,5.038944325E0
3.063722708E0,4.174668732E0,-6.866221619E-1,-2.630030823E-1,4.238924349E0
3.073760708E0,3.311264191E0,-9.587562561E-1,-1.448238373E0,3.739128038E0
3.083799708E0,2.033970337E0,-9.172924805E-1,-2.335892487E0,3.230302545E0
3.093837708E0,6.840774536E-1,-7.798782349E-1,-2.171085205E0,2.406196790E0
3.103875709E0,-2.387535095E-1,-8.967851257E-1,-1.260229340E0,1.565057439E0
3.113913708E0,-9.792636108E-1,-9.171427917E-1,-5.037025452E-1,1.433117013E0
3.123952708E0,-1.671723633E0,-9.476792908E-1,1.032852173E-2,1.921682237E0
3.133990709E0,-2.066752167E0,-1.290765839E0,2.362088013E-1,2.448128993E0
3.144028708E0,-2.210004272E0,-1.486858063E0,2.351609802E-1,2.673979519E0
3.154067708E0,-2.024989014E0,-1.525477753E0,4.143383789E-1,2.568917899E0
3.164105708E0,-1.450483704E0,-1.629511414E0,5.613327026E-1,2.252621767E0
3.174143709E0,-8.059240723E-1,-1.609902191E0,3.204835510E-1,1.828663004E0
3.184181708E0,-5.523513794E-2,-1.499731293E0,-2.363584900E-1,1.519246592E0
3.194220708E0,5.616320801E-1,-1.405876465E0,-8.164022827E-1,1.720009278E0
3.204258709E0,6.400689697E-1,-1.224154358E0,-1.227297821E0,1.847837146E0
3.214296708E0,3.728746033E-1,-1.077758789E0,-1.453776855E0,1.847719303E0
3.224334708E0,-3.113525391E-2,-1.112336884E0,-1.412013702E0,1.797789043E0
3.234373708E0,-4.677772522E-1,-1.035097504E0,-1.131646729E0,1.603392253E0
3.244411708E0,-7.996371460E-1,-8.590635681E-1,-6.568341064E-1,1.344931531E0
3.254449708E0,-8.840615845E-1,-6.239025879E-1,-1.501377869E-1,1.092410490E0
3.264487708E0,-6.402186584E-1,-3.019221497E-1,1.215472412E-1,7.181995871E-1
3.274526709E0,-7.125183105E-2,2.064207458E-1,7.424560547E-2,2.306485588E-1
3.284564708E0,8.232879639E-1,7.893086243E-1,-2.233355713E-1,1.162191875E0
3.294602708E0,1.629511414E0,1.206940155E0,-7.307803345E-1,2.155470223E0
3.304641708E0,2.150428162E0,1.526824951E0,-1.218466187E0,2.905201466E0
3.314679708E0,2.591261444E0,1.835183716E0,-1.474583588E0,3.500990131E0
3.324717708E0,2.956202545E0,2.165397034E0,-1.441801758E0,3.937876345E0
3.334755708E0,3.443289642E0,2.530637512E0,-1.743424530E0,4.615181348E0
3.344794709E0,2.967429199E0,2.584226074E0,-2.767894135E0,4.810935293E0
3.354832708E0,7.355703735E-1,1.669029236E0,-3.962260437E0,4.361906709E0
3.364870708E0,-3.199746094E0,-6.210585022E-1,-3.691623230E0,4.924649307E0
3.374908709E0,-6.825955353E0,-4.225712585E0,-2.449805603E0,8.393560676E0
3.384947708E0,-7.686366119E0,-8.999136200E0,-1.061442719E0,1.188239610E1
3.394985708E0,-3.630999298E0,-1.587059692E1,3.324586487E-1,1.628405758E1
3.405023708E0,8.087681580E0,-2.607592484E1,-1.182540894E0,2.732696200E1
3.415061709E0,2.469115448E1,-3.525618439E1,-8.119265900E0,4.380153109E1
3.425100708E0,4.368725189E1,-4.175072891E1,-1.731733841E1,6.286166998E1
3.435138708E0,6.031452530E1,-4.430636444E1,-2.360411499E1,7.847324472E1
3.445176709E0,6.623770798E1,-3.685441086E1,-1.913141602E1,7.817731536E1
3.455214708E0,6.355603455E1,-2.647020493E1,-8.918903046E0,6.942325336E1
3.465253708E0,6.054115402E1,-2.704740463E1,-1.006357269E0,6.631595722E1
3.475291708E0,5.402565308E1,-3.402709030E1,8.202941895E-1,6.385363691E1
3.485329709E0,4.043361786E1,-3.731455399E1,-1.562600555E0,5.504266629E1
3.495367708E0,2.765798492E1,-3.623215485E1,-6.126609650E0,4.599204845E1
3.505406708E0,2.173629913E1,-3.303270813E1,-1.252460495E1,4.147881671E1
3.515444709E0,1.809811478E1,-2.654579773E1,-1.746882339E1,3.657021912E1
3.525482708E0,1.433523972E1,-1.878398849E1,-1.816158279E1,2.980235580E1
3.535521708E0,1.082578766E1,-1.180954193E1,-1.436547684E1,2.151812919E1
3.545559708E0,7.620652771E0,-5.475314026E0,-7.754474487E0,1.217313792E1
3.555597708E0,5.291645966E0,9.398954773E-1,-2.812651062E-1,5.381824095E0
3.565635708E0,4.607867889E0,7.062164154E0,6.284082184E0,1.051647745E1
3.575674708E0,4.998256073E0,1.059092606E1,1.129296616E1,1.626903080E1
3.585712709E0,4.656965790E0,1.106154739E1,1.313787964E1,1.779463522E1
3.595750708E0,3.509901123E0,9.276958466E0,1.187809937E1,1.547483792E1
3.605788708E0,2.074685669E0,4.882247314E0,8.244255981E0,9.803489999E0
3.615827709E0,5.936654663E-1,-3.496728516E-1,4.119732971E0,4.176949789E0
3.625865708E0,-1.225351868E0,-3.094814301E0,5.777984619E-1,3.378344834E0
3.635903708E0,-3.156785431E0,-3.224594421E0,-2.296374664E0,5.063263773E0
3.645941708E0,-4.169279938E0,-2.355801086E0,-3.554508362E0,5.963826259E0
3.655980709E0,-3.960314484E0,-1.498833160E0,-3.151097260E0,5.278257818E0
3.666018708E0,-3.278182983E0,-6.985972595E-1,-1.659000092E0,3.739893462E0
3.676056708E0,-2.302661591E0,-2.354603577E-1,4.525090027E-1,2.358486035E0
3.686094709E0,-1.149160309E0,1.574725342E-1,2.849474487E0,3.076503188E0
3.696133708E0,-4.879852295E-2,5.547463989E-1,4.855153656E0,4.886986995E0
3.706171708E0,9.873468018E-1,5.794450378E-1,6.361770630E0,6.463956668E0
3.716209708E0,1.897903290E0,2.558180237E-1,6.950196991E0,7.209210634E0
3.726248708E0,2.143392792E0,-2.377056885E-1,6.464906158E0,6.815104423E0
3.736286708E0,2.029030609E0,-1.027014313E0,4.985382843E0,5.479577146E0
3.746324708E0,1.594484253E0,-1.670077057E0,3.081192627E0,3.850361725E0
3.756362709E0,9.791139221E-1,-2.176773376E0,9.029223633E-1,2.551915986E0
3.766401708E0,4.498146057E-1,-2.215542755E0,-9.865983582E-1,2.466645333E0
3.776439708E0,2.025288391E-1,-1.844614105E0,-1.826501770E0,2.603791052E0
3.786477708E0,1.306782532E-1,-1.461111603E0,-1.812281342E0,2.331584779E0
3.796515708E0,-9.909393311E-2,-1.251996460E0,-1.287173309E0,1.798368670E0
3.806554708E0,-5.086422729E-1,-1.194965057E0,-6.755451965E-1,1.463905654E0
3.816592708E0,-1.070723419E0,-1.266366577E0,-1.826202393E-2,1.658453029E0
3.826630709E0,-1.471290436E0,-1.412612457E0,5.992039490E-1,2.125844508E0
3.836669083E0,-1.553918610E0,-1.453327789E0,1.334474945E0,2.511503153E0
3.846708084E0,-1.331481171E0,-1.453477478E0,2.022144928E0,2.823917314E0
3.856746083E0,-9.011260986E-1,-1.465153198E0,2.455493774E0,2.998024652E0
3.866784083E0,-4.640350342E-1,-1.319506073E0,2.515518951E0,2.878239112E0
3.876822083E0,-1.342707825E-1,-1.346000977E0,2.058070221E0,2.462803343E0
3.886861083E0,-9.759704590E-2,-1.328337708E0,1.395547943E0,1.929134601E0
3.896899083E0,-2.490820312E-1,-1.279988251E0,8.095166016E-1,1.534838398E0
3.906937083E0,-2.644999695E-1,-1.190474396E0,1.475930786E-1,1.228402718E0
3.916975084E0,-1.914518738E-1,-8.869056702E-1,-5.429209900E-1,1.057364029E0
3.927014083E0,-3.564088440E-1,-5.779481506E-1,-8.872050476E-1,1.117221610E0
3.937052083E0,-7.023394775E-1,-5.707630920E-1,-8.888516235E-1,1.268506388E0
3.947090084E0,-1.155746613E0,-5.150788879E-1,-6.129753113E-1,1.405985500E0
3.957129083E0,-1.327888641E0,-3.278182983E-1,-2.402503967E-1,1.388694831E0
3.967167083E0,-1.283580780E0,-3.999682617E-1,-7.319778442E-2,1.346444260E0
3.977205083E0,-1.118174744E0,-3.754193115E-1,-1.179547119E-1,1.185397710E0
3.987243084E0,-6.234535217E-1,-1.953437805E-1,-3.064128113E-1,7.216247621E-1
3.997282083E0,4.626878357E-1,1.469943237E-1,-6.951544189E-1,8.478956485E-1
4.007320083E0,1.622326355E0,8.440946960E-1,-1.154399414E0,2.162655004E0
4.017358084E0,2.631527710E0,1.609752502E0,-1.224154358E0,3.318854486E0
4.027396083E0,3.459905090E0,2.237996063E0,-1.560953979E0,4.406375715E0
4.037435083E0,3.639980621E0,2.606230316E0,-1.880389709E0,4.855693652E0
4.047473083E0,3.762425995E0,2.621199188E0,-2.189945984E0,5.081574359E0
4.057511084E0,4.755460968E0,1.926044769E0,-2.807861023E0,5.848772606E0
4.067549083E0,6.981931000E0,8.086184692E-1,-3.488046570E0,7.846508344E0
4.077588083E0,1.080992065E1,-1.168470154E0,-4.418511658E0,1.173639435E1
4.087626084E0,1.671289536E1,-5.750591583E0,-5.816753998E0,1.860711697E1
4.097664083E0,2.410871567E1,-1.229573090E1,-7.286547546E0,2.802693249E1
4.107702083E0,3.360272278E1,-1.858145966E1,-8.662785645E0,3.936314871E1
4.117741083E0,4.324013168E1,-2.031290909E1,-8.741671600E0,4.856686202E1
4.127779083E0,5.426874756E1,-1.566372711E1,-5.773493958E0,5.677836332E1
4.137817083E0,6.944448944E1,-9.876910858E0,-1.087338867E0,7.015178392E1
4.147856083E0,8.422550217E1,-7.357949066E0,2.192790070E0,8.457471820E1
4.157894084E0,9.262019531E1,-1.033301239E1,-4.198768616E-1,9.319575109E1
4.167932083E0,9.367939270E1,-1.904459656E1,-6.754254456E0,9.583394611E1
4.177970083E0,8.878531998E1,-2.762116150E1,-1.106005051E1,9.363806023E1
4.188009084E0,8.184140991E1,-3.272734314E1,-1.014096176E1,8.872392277E1
4.198047083E0,7.429111084E1,-3.615431671E1,-5.592071228E0,8.281047656E1
4.208085083E0,6.747428650E1,-3.688674362E1,7.036866760E-1,7.690192695E1
4.218123083E0,6.405075577E1,-3.735586807E1,1.130688721E1,7.500537242E1
4.228162084E0,5.846197769E1,-3.938894028E1,2.386038208E1,7.442183339E1
4.238200083E0,4.796281082E1,-4.088043869E1,3.065415436E1,7.008080100E1
4.248238083E0,2.795182388E1,-4.300422226E1,2.808699280E1,5.847689078E1
4.258276084E0,4.539759521E0,-4.102533737E1,2.009630951E1,4.590805353E1
4.268315083E0,-9.695787506E0,-3.599879013E1,1.658101959E1,4.080259057E1
4.278353083E0,-1.418001251E1,-2.865461243E1,1.564950668E1,3.559587936E1
4.288391083E0,-1.296723450E1,-1.618479355E1,1.517678970E1,2.569886492E1
4.298429084E0,-1.234991821E1,-3.908372498E-1,1.689252182E1,2.092917884E1
4.308468083E0,-1.030696655E1,1.116423386E1,2.319905731E1,2.773211022E1
4.318506083E0,-9.178463287E0,9.416468353E0,3.586706406E1,3.820157521E1
4.328544084E0,-1.961865280E1,3.370091858E0,4.878100937E1,5.268620248E1
4.338582083E0,-3.733745636E1,-6.406228180E0,5.522750381E1,6.697165508E1
4.348621083E0,-5.556490219E1,-1.638986710E1,4.388753540E1,7.267875799E1
4.358659083E0,-6.170079254E1,-1.754007523E1,2.205513611E1,6.783119539E1
4.368697083E0,-5.467006302E1,-1.083387085E1,1.005608826E1,5.663314806E1
4.378735083E0,-4.217120453E1,-7.373965759E0,1.040591080E1,4.405756282E1
4.388774083E0,-3.325394806E1,-8.885672150E0,1.225621307E1,3.653758325E1
4.398812084E0,-2.680505859E1,-1.230141907E1,1.731404526E1,3.419959416E1
4.408850083E0,-2.138018967E1,-1.428075302E1,2.396097290E1,3.514513678E1
4.418888083E0,-1.604872650E1,-1.372765320E1,2.828458191E1,3.529911696E1
4.428927083E0,-1.062325882E1,-1.288295975E1,2.695354980E1,3.170675207E1
4.438965083E0,-5.307512970E0,-1.208182571E1,2.034823563E1,2.425264727E1
4.449003083E0,6.310876465E-1,-1.158351196E1,1.206012085E1,1.673387391E1
4.459042083E0,5.288502502E0,-1.005653732E1,4.688849487E0,1.229176599E1
4.469080084E0,7.614964600E0,-9.231453094E0,-3.538641357E-1,1.197216070E1
4.479118083E0,9.153914337E0,-1.030322433E1,-1.897304535E0,1.391223720E1
4.489156083E0,9.457483063E0,-1.007435028E1,-1.090781708E0,1.386096404E1
4.499195084E0,9.838740234E0,-9.142537994E0,-1.056952057E0,1.347234048E1
4.509233083E0,1.015877472E1,-7.763605499E0,-9.400451660E-1,1.282021681E1
4.519271083E0,1.047237259E1,-6.448141022E0,-1.272204437E0,1.236396435E1
4.529309083E0,1.042911255E1,-6.062692566E0,-1.976040802E0,1.222404871E1
4.539348084E0,9.538165283E0,-5.325924683E0,-2.488874359E0,1.120431016E1
4.549386083E0,9.519603882E0,-4.494254150E0,-3.145409088E0,1.098702766E1
4.559424083E0,9.820328522E0,-3.825744324E0,-3.837719421E0,1.121620534E1
4.569462084E0,1.007330246E1,-3.187022552E0,-5.058580627E0,1.171399903E1
4.579501083E0,1.015757721E1,-2.386936340E0,-6.870113525E0,1.249288997E1
4.589539083E0,1.025472519E1,-1.460662537E0,-8.729247437E0,1.354594716E1
4.599577083E0,1.017568954E1,-5.084925842E-1,-1.008467880E1,1.433540962E1
4.609615084E0,9.604327698E0,5.733078003E-2,-1.066427353E1,1.435176391E1
4.619654083E0,8.894503784E0,2.567161560E-1,-1.007135651E1,1.343913400E1
4.629692083E0,8.135731659E0,1.826202393E-1,-8.509354706E0,1.177423447E1
4.639730084E0,7.167395325E0,-1.276844788E-1,-6.782246246E0,9.868471169E0
4.649768083E0,6.050567780E0,-1.073717194E0,-4.965025177E0,7.900235065E0
4.659807083E0,5.010979614E0,-2.171085205E0,-2.706521759E0,6.094980533E0
4.669845083E0,5.014721832E0,-3.615431671E0,-1.818717957E-1,6.184808693E0
4.679883083E0,5.760171661E0,-4.688400421E0,2.229613495E0,7.754473058E0
4.689922083E0,6.717580719E0,-5.155728607E0,4.038302307E0,9.381647708E0
4.699960083E0,7.601642303E0,-5.223986664E0,4.694387970E0,1.034950631E1
4.709998084E0,8.318202209E0,-5.162913666E0,3.999532928E0,1.057565266E1
4.720036083E0,8.572373657E0,-5.008584595E0,2.624492340E0,1.026934612E1
4.730075083E0,8.407566376E0,-4.750371552E0,1.028211823E0,9.711355301E0
4.740113084E0,8.173004150E0,-4.568799133E0,-4.553530884E-1,9.374394316E0
4.750151083E0,7.980354767E0,-4.408781891E0,-1.047072601E0,9.177133594E0
4.760189083E0,7.868986359E0,-4.536466370E0,-4.427792358E-1,9.093763076E0
4.770228083E0,7.726183319E0,-4.666845245E0,9.238787842E-1,9.073417506E0
4.780266084E0,6.891668701E0,-4.241130524E0,1.917063446E0,8.316093907E0
4.790304083E0,5.229076080E0,-3.354224854E0,2.491718445E0,6.693483535E0
4.800342083E0,3.359164581E0,-2.519410858E0,3.372037811E0,5.385355769E0
4.810381084E0,1.154698792E0,-1.584604797E0,4.199517059E0,4.634678543E0
4.820419083E0,-1.016386414E0,-3.016227722E-1,4.491859131E0,4.615280716E0
4.830457083E0,-3.260669403E0,1.636995850E0,3.697760468E0,5.194723558E0
4.840495125E0,-5.352419586E0,3.675905914E0,9.297166443E-1,6.559348501E0
4.850534125E0,-7.097341003E0,5.485492859E0,-3.115920410E0,9.495885489E0
4.860572125E0,-9.488468628E0,8.074808350E0,-5.411097565E0,1.358357625E1
4.870610125E0,-1.125689117E1,1.138367752E1,-4.245920563E0,1.656301767E1
4.880648125E0,-6.699169006E0,1.225142303E1,-4.209845581E0,1.458420487E1
4.890687125E0,-3.334016876E0,1.285302200E1,-3.545527039E0,1.374360233E1
4.900725125E0,-9.749226379E-1,1.251966522E1,-2.851121063E0,1.287716517E1
4.910763125E0,2.223027191E0,1.075887680E1,-2.471211090E0,1.126064670E1
4.920802125E0,5.250930634E0,9.446256409E0,-2.111509094E0,1.101192550E1
4.930840125E0,9.433981934E0,8.333171082E0,-3.481460266E0,1.305995103E1
4.940878125E0,1.568558167E1,3.740272064E0,-6.118376770E0,1.724707632E1
4.950916125E0,2.580364105E1,-4.516707458E0,-9.561816101E0,2.788649969E1
4.960955125E0,4.131947571E1,-1.178304703E1,-9.681118011E0,4.404387944E1
4.970993125E0,5.638384918E1,-1.917976547E1,1.684596863E0,5.958053137E1
4.981031125E0,6.487853439E1,-2.003149429E1,3.761198547E1,7.762181678E1
4.991069125E0,7.542380539E1,-1.411310165E1,7.536303177E1,1.075523901E2
5.001108125E0,8.702348373E1,-8.575217743E0,7.924161621E1,1.180078591E2
5.011146125E0,9.201485413E1,-1.505943375E1,5.315221939E1,1.073251059E2
5.021184125E0,8.204962692E1,-2.464490067E1,2.715128860E1,8.987048948E1
5.031222125E0,7.507787476E1,-2.252860153E1,1.536599625E1,7.987702427E1
5.041261125E0,8.323770630E1,-1.656635010E1,1.878668289E1,8.692467521E1
5.051299125E0,9.589792923E1,-1.612836090E1,2.582848938E1,1.006163392E2
5.061337125E0,9.790645248E1,-2.397055298E1,3.090652954E1,1.054299503E2
5.071375125E0,8.935114334E1,-3.373100601E1,3.145828217E1,1.005536230E2
5.081414125E0,7.925793228E1,-3.882880508E1,3.251747955E1,9.405786735E1
5.091452125E0,7.202647018E1,-3.950869125E1,3.497701492E1,8.928684486E1
5.101490125E0,6.132926514E1,-3.797902222E1,3.654245956E1,8.086430759E1
5.111528125E0,4.885660217E1,-3.648527847E1,3.578593277E1,7.070202335E1
5.121567125E0,3.599295227E1,-3.489753021E1,3.214864655E1,5.955556819E1
5.131605125E0,2.294713120E1,-3.199117401E1,2.730546799E1,4.791236403E1
5.141643125E0,1.163231049E1,-2.905398193E1,2.459580276E1,3.980449757E1
5.151681125E0,1.954934692E-1,-2.648038376E1,2.284609131E1,3.497417375E1
5.161720125E0,-9.239985352E0,-2.309876587E1,1.936433167E1,3.152630100E1
5.171758125E0,-1.674657532E1,-1.969559280E1,1.625724289E1,3.053951714E1
5.181796125E0,-2.030752029E1,-1.706675949E1,1.372735382E1,2.986820890E1
5.191834125E0,-1.935280563E1,-1.360835129E1,9.856403503E0,2.562941671E1
5.201873125E0,-1.409379181E1,-1.146660507E1,9.260193329E0,2.039287081E1
5.211911125E0,-3.037932587E0,-1.250574417E1,9.119934998E0,1.577326491E1
5.221949125E0,8.938961334E0,-1.381088013E1,9.485025787E0,1.898976445E1
5.231988125E0,1.055859329E1,-1.581371521E1,1.347273331E1,2.330390576E1
5.242026125E0,-7.032226410E0,-2.341730347E1,2.142734161E1,3.251081787E1
5.252064125E0,-2.933794144E1,-3.787349167E1,2.928255661E1,5.614787886E1
5.262102125E0,-4.219590317E1,-4.632581497E1,3.079575989E1,6.982087227E1
5.272140125E0,-3.743550247E1,-4.623809738E1,2.211815506E1,6.347118463E1
5.282179125E0,-2.639640839E1,-3.784430237E1,1.553768921E1,4.868656266E1
5.292217125E0,-2.378658554E1,-3.281730606E1,1.857786713E1,4.458603342E1
5.302255125E0,-3.097179382E1,-3.571902191E1,2.497346741E1,5.346750988E1
5.312294125E0,-3.694332596E1,-4.280932755E1,3.899271423E1,6.868682276E1
5.322332125E0,-3.666744965E1,-4.443928802E1,5.184034744E1,7.750337932E1
5.332370125E0,-2.461376541E1,-4.024216599E1,5.439089355E1,7.199749074E1
5.342408125E0,-4.682113495E0,-3.483151749E1,5.084416901E1,6.180846479E1
5.352447125E0,1.344668747E1,-2.847842880E1,4.433839783E1,5.438499639E1
5.362485125E0,2.456870911E1,-2.136237671E1,3.316847580E1,4.647709536E1
5.372523125E0,2.559377747E1,-1.563109497E1,1.863489853E1,3.530767648E1
5.382561125E0,2.193119385E1,-1.599828140E1,7.627688141E0,2.819758674E1
5.392600125E0,2.032443512E1,-2.053369995E1,4.132157135E0,2.918544533E1
5.402638125E0,2.356130402E1,-2.112437164E1,3.492237854E0,3.183661178E1
5.412676125E0,2.950214996E1,-1.870854538E1,6.944808197E0,3.561764848E1
5.422714125E0,3.344031052E1,-1.576955704E1,1.353260880E1,3.937086229E1
5.432753125E0,3.296385132E1,-1.189860672E1,1.811443085E1,3.945028442E1
5.442791125E0,2.962504440E1,-9.139993286E0,1.703502548E1,3.537477670E1
5.452829125E0,2.632994659E1,-7.663912811E0,1.139610168E1,2.969634289E1
5.462867125E0,2.428909058E1,-6.371949463E0,4.635260925E0,2.553521695E1
5.472906125E0,2.270718018E1,-4.992268524E0,-5.960604858E-1,2.325712933E1
5.482944125E0,2.089070755E1,-3.562890930E0,-3.754492493E0,2.152236204E1
5.492982125E0,1.885404282E1,-2.406096497E0,-4.846322021E0,1.961507247E1
5.503020125E0,1.687949890E1,-2.069446564E0,-4.034260712E0,1.747785318E1
5.513059125E0,1.536943909E1,-1.681752777E0,-1.878144379E0,1.557483151E1
5.523097125E0,1.406669815E1,-7.228468323E-1,7.535330200E-1,1.410540026E1
5.533135125E0,1.294313461E1,-2.739303589E-2,2.340832214E0,1.315313573E1
5.543173125E0,1.145328278E1,2.871029663E-1,2.736010437E0,1.177904358E1
5.553212125E0,1.001507355E1,5.860313416E-1,2.495161285E0,1.033784120E1
5.563250125E0,9.700427856E0,5.013075256E-1,1.773511963E0,9.873953338E0
5.573288125E0,1.068448151E1,1.591191101E-1,1.079555054E0,1.074006066E1
5.583326125E0,1.213376770E1,2.215393066E-2,1.644779663E0,1.224475845E1
5.593365125E0,1.314536407E1,-5.453160095E-1,2.814297638E0,1.345430182E1
5.603403125E0,1.346914078E1,-9.740245056E-1,3.971241760E0,1.407612298E1
5.613441125E0,1.340776840E1,-1.397942963E0,5.029541016E0,1.438814724E1
5.623479125E0,1.223286163E1,-2.613415375E0,6.429130554E0,1.406437213E1
5.633518125E0,1.031849258E1,-4.475093994E0,7.663014679E0,1.360953891E1
5.643556125E0,8.732241211E0,-6.873706055E0,8.525072021E0,1.400631017E1
5.653594125E0,7.050488434E0,-9.010213165E0,9.264384613E0,1.472148602E1
5.663633125E0,6.800508270E0,-9.691895599E0,1.060754150E1,1.589653075E1
5.673671125E0,8.256380768E0,-9.507179718E0,1.168604874E1,1.717899952E1
5.683709125E0,1.015009277E1,-9.026678925E0,1.215741852E1,1.822932091E1
5.693747125E0,1.164877625E1,-8.312064972E0,1.099059494E1,1.804376871E1
5.703786125E0,1.250050507E1,-7.862400055E0,7.400011597E0,1.651787314E1
5.713824125E0,1.226354782E1,-7.912695465E0,2.373464355E0,1.478643594E1
5.723862125E0,1.112157257E1,-7.484585724E0,-1.593885498E0,1.349995818E1
5.733900125E0,9.850865021E0,-6.994055786E0,-3.670966187E0,1.262665240E1
5.743939125E0,7.988887024E0,-6.249803467E0,-3.520529022E0,1.073668868E1
5.753977125E0,6.089337158E0,-5.033582611E0,-2.706521759E0,8.351182010E0
5.764015125E0,4.461322632E0,-3.112178192E0,-2.614612885E0,6.035333732E0
5.774053125E0,2.302960968E0,-1.292113037E0,-3.471580811E0,4.361772420E0
5.784092125E0,-8.725355530E-1,-7.978408813E-2,-6.312073975E0,6.372594578E0
5.794130125E0,-4.435725861E0,1.165027313E0,-1.047132477E1,1.143160509E1
5.804168125E0,-7.547904053E0,2.684068451E0,-1.486663467E1,1.688762581E1
5.814206125E0,-9.598190460E0,4.422852631E0,-1.816128342E1,2.101235591E1
5.824245125E0,-9.219178619E0,6.203549652E0,-1.847742599E1,2.156136717E1
5.834283000E0,-6.367159424E0,9.529633026E0,-1.535821243E1,1.916322817E1
5.844321000E0,-2.962339783E0,1.310674438E1,-8.648565216E0,1.597998391E1
5.854359000E0,-1.609153748E0,1.446561859E1,-9.331594849E-1,1.458472775E1
5.864398000E0,-2.555336151E0,1.345836319E1,1.868564301E0,1.382565786E1
5.874436000E0,-3.972888336E0,1.026355682E1,-1.766177216E0,1.114647130E1
5.884474000E0,-4.369563446E0,7.613467712E0,-7.301067352E0,1.141768627E1
5.894512000E0,-3.510350189E0,5.401517487E0,-1.121303238E1,1.293178428E1
5.904551000E0,-2.360591125E-1,2.839595032E0,-1.124162292E1,1.159711644E1
5.914589000E0,6.655010834E0,-1.919308777E0,-8.974138184E0,1.133614006E1
5.924627000E0,2.009166916E1,-9.253607025E0,-4.592599640E0,2.259195397E1
5.934665000E0,3.762710403E1,-1.696287552E1,4.436474304E0,4.151169002E1
5.944704000E0,4.716122772E1,-2.279863998E1,1.475840973E1,5.442214662E1
5.954742000E0,5.095089706E1,-2.233191055E1,3.038456497E1,6.338714325E1
5.964780000E0,5.698724442E1,-1.766311935E1,4.756897980E1,7.630425709E1
5.974819000E0,6.701279617E1,-1.282847305E1,5.492154007E1,8.758801365E1
5.984857000E0,7.849676514E1,-1.486334152E1,4.953304550E1,9.400097688E1
5.994895000E0,8.618492752E1,-1.690300003E1,3.707101044E1,9.533002128E1
6.004933000E0,8.971623413E1,-1.803120392E1,2.470612335E1,9.478670536E1
6.014972000E0,8.756041718E1,-1.940819046E1,1.699730392E1,9.128205110E1
6.025010000E0,7.944564194E1,-2.274460236E1,1.039273819E1,8.328827028E1
6.035048000E0,6.851716782E1,-2.766187683E1,4.234693909E0,7.401158253E1
6.045086000E0,6.082032349E1,-3.061837875E1,2.876268768E0,6.815328157E1
6.055125000E0,5.702316971E1,-3.013039352E1,6.715934143E0,6.484278116E1
6.065163000E0,5.312782013E1,-2.989433441E1,1.521765472E1,6.283162832E1
6.075201000E0,4.580564667E1,-2.994582733E1,2.232143234E1,5.910292872E1
6.085239000E0,3.485142609E1,-3.060685272E1,2.306628342E1,5.180207297E1
6.095278000E0,2.178719330E1,-2.937955490E1,1.761596741E1,4.059756576E1
6.105316000E0,1.066277664E1,-2.593222366E1,1.052117111E1,2.994778909E1
6.115354000E0,2.928959198E0,-2.132690048E1,4.237238617E0,2.194013850E1
6.125392000E0,-1.780397644E0,-1.681348618E1,5.050497437E-1,1.691502907E1
6.135431000E0,-4.850513306E0,-1.334445007E1,-3.212319946E-1,1.420228915E1
6.145469000E0,-6.476581879E0,-1.142858414E1,5.599855042E-1,1.314808853E1
6.155507000E0,-6.591542816E0,-1.018003052E1,1.843117218E0,1.226696943E1
6.165545000E0,-5.813760223E0,-7.997419281E0,1.811682587E0,1.005190116E1
6.175584000E0,-5.301974487E0,-2.813399506E0,1.446292419E0,6.173970522E0
6.185622000E0,-3.958667908E0,4.756808167E0,1.970053253E0,6.494565833E0
6.195660000E0,3.562890930E0,7.201374664E0,2.765948181E0,8.497320647E0
6.205698000E0,9.083261261E0,1.162811920E1,5.243895264E0,1.565941343E1
6.215737000E0,5.322781219E0,1.071292236E1,6.420598297E0,1.357655287E1
6.225775000E0,-8.015082550E0,1.808389435E0,9.719138947E0,1.272688031E1
6.235813000E0,-2.509516434E1,-1.435410049E1,2.157179123E1,3.607145202E1
6.245851000E0,-4.155074478E1,-2.550785614E1,2.701896378E1,5.574172154E1
6.255890000E0,-4.420322891E1,-2.648981415E1,2.280717224E1,5.635426164E1
6.265928000E0,-3.736155624E1,-2.127690445E1,1.649584671E1,4.605111841E1
6.275966000E0,-3.316368576E1,-1.547960999E1,1.070678513E1,3.813244847E1
6.286004000E0,-3.249083496E1,-1.348066681E1,9.677824860E0,3.648346239E1
6.296043000E0,-3.227453476E1,-1.406639877E1,8.835975494E0,3.629853484E1
6.306081000E0,-2.950768845E1,-1.536210434E1,7.478747864E0,3.409735469E1
6.316119000E0,-2.254342072E1,-1.501976624E1,7.015012207E0,2.798230855E1
6.326157000E0,-1.457953171E1,-1.411055695E1,6.493347015E0,2.130338277E1
6.336196000E0,-6.995852051E0,-1.319401291E1,5.565726013E0,1.593741600E1
6.346234000E0,-1.534010010E0,-1.236413864E1,3.305126953E0,1.288987879E1
6.356272000E0,2.083367615E0,-1.197300201E1,2.239343262E-1,1.215497200E1
6.366310000E0,5.076992340E0,-1.233914062E1,-1.941762085E0,1.348334834E1
6.376349000E0,8.016579437E0,-1.341674973E1,-2.474354553E0,1.582394229E1
6.386387000E0,9.420060883E0,-1.439661209E1,-7.625143433E-1,1.722153927E1
6.396425000E0,9.793683929E0,-1.561133606E1,1.535806274E0,1.849293810E1
6.406463000E0,1.065125061E1,-1.684402267E1,4.709057465E0,2.047792620E1
6.416502000E0,1.149010620E1,-1.576895828E1,8.689879303E0,2.135875905E1
6.426540000E0,1.228076202E1,-1.319521042E1,1.016521133E1,2.069449722E1
6.436578000E0,1.242940292E1,-1.155761581E1,9.127120056E0,1.927103684E1
6.446617000E0,1.290092239E1,-1.087713089E1,6.847660217E0,1.821088206E1
6.456655000E0,1.369696701E1,-9.683063965E0,4.802014160E0,1.744786443E1
6.466693000E0,1.452055435E1,-8.799900513E0,2.830014954E0,1.721318484E1
6.476731000E0,1.556388474E1,-8.298742676E0,1.319356384E0,1.768740623E1
6.486769000E0,1.694790665E1,-7.064110107E0,1.473086700E0,1.842018392E1
6.496808000E0,1.834285583E1,-5.116809540E0,2.734214172E0,1.923845179E1
6.506846000E0,1.905417664E1,-3.504212952E0,3.392096100E0,1.966843846E1
6.516884000E0,1.896226776E1,-2.275118866E0,3.214415588E0,1.936688493E1
6.526923000E0,1.819421494E1,-1.519340515E0,2.505040741E0,1.842859414E1
6.536961000E0,1.705972412E1,-1.099463654E0,1.912722473E0,1.720178812E1
6.546999000E0,1.577524521E1,-7.670050049E-1,1.561702423E0,1.587090333E1
6.557037000E0,1.453537354E1,-5.640270996E-1,1.551074524E0,1.462877447E1
6.567076000E0,1.337783066E1,-3.902384949E-1,1.813329163E0,1.350580623E1
6.577114000E0,1.221819214E1,-3.189866638E-1,2.174228668E0,1.241423545E1
6.587152000E0,1.127694946E1,-5.019062805E-1,2.492466888E0,1.156001256E1
6.597190000E0,1.041833496E1,-8.836125183E-1,2.626288605E0,1.078053182E1
6.607229000E0,9.168733521E0,-1.269210663E0,2.673141174E0,9.634430643E0
6.617267000E0,7.874824219E0,-2.233056335E0,2.454296265E0,8.545347695E0
6.627305000E0,6.038892059E0,-3.350332947E0,2.390678558E0,7.308097709E0
6.637343000E0,4.347858582E0,-4.139042816E0,3.489992523E0,6.943745206E0
6.647382000E0,3.119962006E0,-4.483027496E0,4.816384277E0,7.282118919E0
6.657420000E0,2.366728363E0,-4.226461029E0,5.232219543E0,7.130252262E0
6.667458000E0,2.248923340E0,-3.200793915E0,4.792134705E0,6.186056329E0
6.677496000E0,2.223476257E0,-1.779948578E0,3.854035492E0,4.792249282E0
6.687535000E0,2.283651123E0,-2.553689575E-1,2.532733154E0,3.419797214E0
6.697573000E0,2.495610352E0,1.463656311E0,1.080902252E0,3.088480290E0
6.707611000E0,2.511327667E0,3.080743561E0,-2.100132751E-1,3.980182548E0
6.717649000E0,1.893113251E0,4.725074158E0,-1.208437042E0,5.231684591E0
6.727688000E0,1.054856415E0,6.453978882E0,-1.925595703E0,6.817219688E0
6.737726000E0,6.581813049E-1,8.328081665E0,-3.222349091E0,8.953975682E0
6.747764000E0,6.896159363E-1,1.026370651E1,-5.041965179E0,1.145603135E1
6.757802000E0,6.870712280E-1,1.188423660E1,-6.498436432E0,1.356233102E1
6.767841000E0,3.725752258E-1,1.253104156E1,-7.178322601E0,1.444624970E1
6.777879000E0,-4.108955383E-1,1.269569916E1,-7.151378632E0,1.457709946E1
6.787917000E0,-1.737736359E0,1.261037659E1,-6.335425415E0,1.421896412E1
6.797955000E0,-3.924389191E0,1.113579300E1,-4.904850311E0,1.278531473E1
6.807994000E0,-6.530918884E0,8.928632812E0,-2.893482971E0,1.143440550E1
6.818032000E0,-8.194409637E0,7.077432404E0,-7.303312683E-1,1.085227085E1
6.828070000E0,-7.306156769E0,4.171525269E0,1.878593445E-1,8.415274263E0
6.838107875E0,-2.404150543E0,1.395847321E0,-1.097517700E0,2.988791508E0
6.848146875E0,6.603966980E0,1.591340790E0,-3.441643066E0,7.615093721E0
6.858184875E0,1.719848557E1,-9.791139221E-1,-4.682412872E0,1.785137418E1
6.868222875E0,2.550845490E1,-9.246272278E0,-4.682113495E0,2.753356150E1
6.878261875E0,3.330005219E1,-2.289488983E1,-1.566941528E0,4.044162165E1
6.888299875E0,3.958518219E1,-3.691129257E1,1.068463120E1,5.516875485E1
6.898337875E0,4.641877167E1,-4.069227997E1,3.001633072E1,6.864068853E1
6.908375875E0,6.170797760E1,-3.699676483E1,5.095748337E1,8.816632134E1
6.918413875E0,7.930358734E1,-3.017799454E1,6.229400894E1,1.052630698E2
6.928452875E0,8.830287323E1,-2.482542526E1,5.587101563E1,1.074023722E2
6.938490875E0,8.504564667E1,-2.712823654E1,3.613186340E1,9.630272472E1
6.948528875E0,7.545329407E1,-3.204341537E1,1.963511856E1,8.429423430E1
6.958567875E0,6.807708298E1,-3.546544922E1,1.393392426E1,7.801564946E1
6.968605875E0,6.628291397E1,-3.973636780E1,1.441592194E1,7.861439064E1
6.978643875E0,6.514857285E1,-4.561359604E1,2.025647644E1,8.206863911E1
6.988681875E0,6.198894333E1,-5.301270950E1,2.779016006E1,8.617000325E1
6.998719875E0,5.848502975E1,-6.118062424E1,3.066074066E1,9.002026719E1
7.008758875E0,5.372822159E1,-6.771468658E1,2.766936127E1,9.076119285E1
7.018796875E0,4.398528214E1,-6.962127182E1,2.115850067E1,8.502651754E1
7.028834875E0,3.018981995E1,-6.450431259E1,1.626352982E1,7.305295321E1
7.038872875E0,1.760474075E1,-5.760066879E1,1.712034805E1,6.261685284E1
7.048911875E0,5.786816254E0,-5.186414795E1,2.120999359E1,5.633152681E1
7.058949875E0,-5.478158112E0,-4.507591415E1,2.292856979E1,5.086813901E1
7.068987875E0,-1.529249908E1,-3.708972153E1,2.028806076E1,4.495679460E1
7.079025875E0,-2.024584854E1,-3.001812698E1,1.603914642E1,3.960096651E1
7.089064875E0,-1.968915619E1,-2.290716431E1,1.148486710E1,3.231568072E1
7.099102875E0,-1.488399857E1,-1.748708542E1,6.544091492E0,2.387795433E1
7.109140875E0,-1.065963318E1,-1.005369324E1,2.873125305E0,1.493182428E1
7.119179875E0,-1.341330688E1,-9.190887451E-1,8.330177307E-1,1.347053986E1
7.129217875E0,-2.285627014E1,3.170257416E0,2.635120239E0,2.322506137E1
7.139255875E0,-3.631822586E1,-2.333048401E0,7.793094177E0,3.721812678E1
7.149293875E0,-5.036441666E1,-1.110660370E1,1.256681717E1,5.308348147E1
7.159332875E0,-5.818415543E1,-1.269809418E1,1.684297485E1,6.188960608E1
7.169370875E0,-5.672244507E1,-1.057535843E1,1.761806305E1,6.032967865E1
7.179408875E0,-4.938275803E1,-9.961634674E0,1.509116776E1,5.258929834E1
7.189446875E0,-3.760914139E1,-1.062251038E1,1.112606323E1,4.063341637E1
7.199485875E0,-2.520308990E1,-1.007375153E1,8.515941010E0,2.844639629E1
7.209523875E0,-1.469643860E1,-8.330027618E0,7.924820251E0,1.865951349E1
7.219561875E0,-6.813531189E0,-6.128106537E0,7.510930939E0,1.184871219E1
7.229599875E0,-1.996697845E0,-5.071453857E0,7.071594543E0,8.928263879E0
7.239638875E0,5.749543762E-1,-5.525459747E0,7.145989838E0,9.051323037E0
7.249676875E0,1.912123718E0,-6.182443542E0,5.965394897E0,8.801406794E0
7.259714875E0,3.182980957E0,-7.730973358E0,3.980372772E0,9.259734567E0
7.269752875E0,3.788920898E0,-9.340725861E0,2.755320282E0,1.044973067E1
7.279791875E0,4.202510834E0,-1.176957504E1,2.253863068E0,1.269897211E1
7.289829875E0,4.776866455E0,-1.465512451E1,2.628533936E0,1.563650595E1
7.299867875E0,6.163433075E0,-1.677786026E1,3.597169647E0,1.823250207E1
7.309905875E0,8.232280884E0,-1.740445724E1,4.350552979E0,1.973861423E1
7.319944875E0,1.042671753E1,-1.737676483E1,4.888983307E0,2.084635585E1
7.329982875E0,1.198557587E1,-1.740505600E1,5.874234467E0,2.193391515E1
7.340020875E0,1.244916183E1,-1.692201050E1,6.839577026E0,2.209334478E1
7.350058875E0,1.232551895E1,-1.586700439E1,7.122638397E0,2.131694686E1
7.360097875E0,1.250604355E1,-1.472368195E1,6.293213196E0,2.031729479E1
7.370135875E0,1.337588470E1,-1.345881226E1,4.488865356E0,1.949881615E1
7.380173875E0,1.452863754E1,-1.138352783E1,2.495011597E0,1.862501269E1
7.390211875E0,1.582104996E1,-8.896150360E0,4.073030090E-1,1.815524742E1
7.400250875E0,1.693323715E1,-6.153852997E0,-1.828747101E0,1.810935513E1
7.410288875E0,1.736239471E1,-3.617976379E0,-4.016597443E0,1.818448675E1
7.420326875E0,1.693308746E1,-1.469194794E0,-6.167774048E0,1.808118970E1
7.430364875E0,1.571072937E1,5.358856201E-2,-7.593708801E0,1.744976511E1
7.440403875E0,1.351344864E1,5.188211060E-1,-7.799830170E0,1.561152844E1
7.450441875E0,1.058164536E1,1.264869690E-1,-6.590494995E0,1.246682966E1
7.460479875E0,7.938142548E0,-5.236111450E-1,-4.460274811E0,9.120434591E0
7.470517875E0,5.958958282E0,-9.415420532E-1,-2.116598511E0,6.393408677E0
7.480556875E0,5.230572968E0,-1.030906219E0,1.143621826E-1,5.332423456E0
7.490594875E0,5.630541229E0,-5.429209900E-1,1.880240021E0,5.960961355E0
7.500632875E0,6.913822632E0,6.798861694E-1,2.042203217E0,7.241117494E0
7.510670875E0,8.478818207E0,2.005379791E0,6.973997498E-1,8.740610545E0
7.520709875E0,9.851763153E0,3.091371460E0,-1.233584747E0,1.039882426E1
7.530747875E0,1.069585785E1,3.687581635E0,-3.541485443E0,1.185503069E1
7.540785875E0,1.051383636E1,3.751349030E0,-5.357958069E0,1.238228934E1
7.550823875E0,9.640851746E0,3.529360657E0,-6.032156067E0,1.190753190E1
7.560862875E0,8.276139679E0,2.806813202E0,-5.516328735E0,1.033453294E1
7.570900875E0,6.670877838E0,2.179916840E0,-4.114044800E0,8.134986981E0
7.580938875E0,5.336851959E0,1.806144104E0,-3.060834961E0,6.411930756E0
7.590976875E0,4.258344727E0,1.739532623E0,-2.014959869E0,5.021905697E0
7.601015875E0,3.778742065E0,2.057321777E0,-1.105002136E0,4.442127217E0
7.611053875E0,3.527863770E0,2.617906036E0,-5.733078003E-1,4.430342721E0
7.621091875E0,2.746189270E0,3.481310577E0,-3.553610229E-1,4.448298585E0
7.631129875E0,1.504521332E0,4.327650604E0,-2.597099304E-1,4.589073266E0
7.641168875E0,-1.490899658E-1,5.132826233E0,-1.555265808E-1,5.137345761E0
7.651206875E0,-2.518812103E0,6.056705017E0,2.210902405E-1,6.563304882E0
7.661244875E0,-5.101092224E0,6.670578461E0,6.325845337E-1,8.421277936E0
7.671282875E0,-7.757168884E0,5.854924622E0,9.617500305E-1,9.766205739E0
7.681321875E0,-1.069630692E1,4.474644928E0,1.641785889E0,1.171020451E1
7.691359875E0,-1.295615753E1,2.624791718E0,1.974543915E0,1.336601561E1
7.701397875E0,-1.315464478E1,1.247805176E0,2.475851440E0,1.344364301E1
7.711435875E0,-9.868827667E0,6.903643799E-1,4.509223022E0,1.087214122E1
7.721474875E0,-3.044668579E0,-2.442919922E-1,4.674778748E0,5.584195705E0
7.731512875E0,5.548661499E0,-2.677033081E0,1.980381775E0,6.471171650E0
7.741550875E0,1.284927979E1,-7.053631897E0,-3.654799805E0,1.510679567E1
7.751588875E0,1.928604446E1,-1.757225830E1,-9.373956757E0,2.772375945E1
7.761627875E0,2.581935837E1,-3.261956726E1,-1.002121078E1,4.279135544E1
7.771665875E0,3.383099808E1,-4.899251953E1,-7.108118591E0,5.996106029E1
7.781703875E0,4.078808075E1,-5.778373810E1,-1.817221069E0,7.075259863E1
7.791741875E0,5.068025986E1,-5.517616058E1,1.005728577E1,7.559131189E1
7.801780875E0,6.018803833E1,-4.725313660E1,2.268412811E1,7.981245858E1
7.811818875E0,6.229939774E1,-4.205339951E1,2.479399063E1,7.914824913E1
7.821856875E0,5.511733292E1,-4.319926666E1,1.418225784E1,7.145091648E1
7.831894875E0,4.215279282E1,-4.869763275E1,-4.158801727E0,6.454156033E1
7.841933583E0,3.197500763E1,-5.282425140E1,-2.232741989E1,6.566061474E1
7.851971583E0,3.101340729E1,-5.096960815E1,-2.700653961E1,6.549111061E1
7.862009584E0,3.340603180E1,-4.944203476E1,-1.423150543E1,6.134340640E1
7.872047583E0,3.210598526E1,-4.853387329E1,3.433709564E0,5.829340878E1
7.882086583E0,2.970812164E1,-4.434603195E1,1.625859009E1,5.579860924E1
7.892124583E0,2.737836639E1,-3.971825546E1,1.883368515E1,5.178631537E1
7.902162584E0,2.307780945E1,-3.514376816E1,1.501527557E1,4.464446472E1
7.912200583E0,2.274969177E1,-2.724933472E1,9.277557220E0,3.668988670E1
7.922239583E0,2.399255722E1,-1.695569046E1,5.662424927E0,2.991991472E1
7.932277584E0,2.435300766E1,-7.603288879E0,4.410129089E0,2.589069760E1
7.942315583E0,2.002775208E1,-1.535207520E0,1.181044006E0,2.012119729E1
7.952353583E0,1.623778336E1,5.148393860E0,-4.356540527E0,1.758269072E1
7.962392583E0,1.100661163E1,1.219873260E1,-7.315587158E0,1.798533826E1
7.972430583E0,4.549489288E0,1.354742798E1,-6.977140961E0,1.590318061E1
7.982468583E0,3.673810272E0,1.381686768E1,-6.588698730E0,1.574209850E1
7.992506583E0,4.939129028E0,1.495659760E1,-6.610253906E0,1.708186945E1
8.002545584E0,2.611319733E0,1.266650986E1,-8.244255981E0,1.533711901E1
8.012583583E0,-5.138364716E0,7.260052643E0,-7.374564514E0,1.155401913E1
8.022621583E0,-1.553514450E1,1.080004120E0,-4.078568573E0,1.609788325E1
8.032659583E0,-2.339170670E1,-3.109932861E0,-1.143621826E0,2.362523006E1
8.042698583E0,-2.664608917E1,-6.382577362E0,4.367318115E0,2.774571732E1
8.052736583E0,-2.627650772E1,-1.190743835E1,1.304237823E1,3.165984170E1
8.062774583E0,-2.547776871E1,-1.731599121E1,2.060135925E1,3.705909137E1
8.072812584E0,-2.577699646E1,-2.102692429E1,2.292078598E1,4.039737023E1
8.082851583E0,-2.477093857E1,-2.299039124E1,2.163750458E1,4.012903053E1
8.092889583E0,-2.281570450E1,-2.408835800E1,2.014211426E1,3.881378788E1
8.102927584E0,-2.090896957E1,-2.313439178E1,1.826711334E1,3.613962537E1
8.112965583E0,-1.923470123E1,-2.132300858E1,1.581655930E1,3.278426412E1
8.123004583E0,-1.778212189E1,-1.901286255E1,1.234423004E1,2.881098430E1
8.133042583E0,-1.504162079E1,-1.713890945E1,6.646777954E0,2.375231000E1
8.143080584E0,-1.186986649E1,-1.488325012E1,3.971241760E-1,1.904107592E1
8.153118583E0,-8.891210632E0,-1.134191437E1,-3.571423187E0,1.484748166E1
8.163157583E0,-5.948180695E0,-7.890541534E0,-4.308191071E0,1.077970359E1
8.173195584E0,-4.696483612E0,-6.135441284E0,-3.764072571E0,8.594698388E0
8.183233583E0,-5.401367798E0,-5.408852234E0,-3.812871094E0,8.542156786E0
8.193271583E0,-6.488856354E0,-5.244044952E0,-4.058210907E0,9.277625774E0
8.203310583E0,-7.500003662E0,-5.865253143E0,-4.432133331E0,1.050214527E1
8.213348584E0,-8.878337402E0,-6.973099365E0,-5.924829254E0,1.274961142E1
8.223386583E0,-9.664801941E0,-8.036038971E0,-7.720345459E0,1.475093397E1
8.233424583E0,-9.409882050E0,-9.213789825E0,-7.404651947E0,1.510856292E1
8.243463584E0,-8.720116425E0,-1.025382706E1,-4.160148926E0,1.408858541E1
8.253501583E0,-8.924142151E0,-1.192749664E1,-8.732839966E-1,1.492206803E1
8.263539583E0,-1.196192505E1,-1.617955444E1,9.325607300E-1,2.014287225E1
8.273577583E0,-1.563004715E1,-2.320040451E1,2.441722412E0,2.808058318E1
8.283616583E0,-1.647099838E1,-2.889366531E1,3.468736725E0,3.343904630E1
8.293654583E0,-1.329071182E1,-3.098900803E1,2.672392731E0,3.382459641E1
8.303692583E0,-6.272107086E0,-2.993460068E1,-5.851332092E-1,3.059022762E1
8.313730584E0,3.559597778E0,-2.625480286E1,-7.301666107E0,2.748271707E1
8.323769583E0,1.143502075E1,-2.116044662E1,-1.451726120E1,2.809403983E1
8.333807583E0,1.452878723E1,-1.644195877E1,-1.839868973E1,2.863451502E1
8.343845583E0,1.356913284E1,-1.425620407E1,-1.662547714E1,2.576368007E1
8.353883583E0,1.149384842E1,-1.392823608E1,-1.164757874E1,2.148884367E1
8.363922583E0,1.022164398E1,-1.378169083E1,-7.075187073E0,1.856004525E1
8.373960583E0,9.733808441E0,-1.345237564E1,-4.748575287E0,1.727027517E1
8.383998584E0,9.577832794E0,-1.247865051E1,-3.753444672E0,1.617219671E1
8.394036583E0,9.901759186E0,-1.226968506E1,-2.491269379E0,1.596234411E1
8.404075583E0,1.112785950E1,-1.226908630E1,-2.778222656E-1,1.656613778E1
8.414113584E0,1.287412811E1,-1.158171570E1,3.041974182E0,1.758217621E1
8.424151583E0,1.491438538E1,-9.929750977E0,7.674091644E0,1.949180669E1
8.434189583E0,1.586670502E1,-7.112609253E0,1.258433075E1,2.146408439E1
8.444228583E0,1.579994385E1,-4.205504608E0,1.542632080E1,2.247878707E1
8.454266584E0,1.454555237E1,-1.891167297E0,1.542587173E1,2.128631312E1
8.464304583E0,1.272758286E1,-3.652404785E-1,1.447040863E1,1.927478902E1
8.474342583E0,1.051218979E1,1.405726776E0,1.347348175E1,1.714692137E1
8.484381584E0,9.247918854E0,3.397933960E0,1.250978577E1,1.592371496E1
8.494419583E0,9.560468903E0,4.965474243E0,1.234512817E1,1.638477005E1
8.504457583E0,1.108385101E1,6.341412964E0,1.284448975E1,1.811204540E1
8.514495583E0,1.330313599E1,7.632178802E0,1.411385010E1,2.084284877E1
8.524534583E0,1.497650620E1,7.004384308E0,1.499970795E1,2.232371779E1
8.534572583E0,1.554936493E1,3.321143646E0,1.465272949E1,2.162210042E1
8.544610583E0,1.575369003E1,-2.843037872E0,1.364382751E1,2.103367879E1
8.554648584E0,1.789962753E1,-1.256247620E1,1.266336639E1,2.527000836E1
8.564687583E0,2.014391052E1,-2.423834610E1,1.160551620E1,3.358515385E1
8.574725583E0,2.020348663E1,-3.190704895E1,1.029768585E1,3.914438630E1
8.584763583E0,2.354843079E1,-3.726036667E1,9.833650818E0,4.516153458E1
8.594801583E0,2.968626709E1,-4.090289200E1,1.110405899E1,5.174573561E1
8.604840583E0,3.571123810E1,-4.022240707E1,1.282009048E1,5.529456824E1
8.614878583E0,3.973008087E1,-3.853092453E1,1.449495758E1,5.721202030E1
8.624916584E0,4.320555359E1,-4.171046265E1,1.341375595E1,6.153382325E1
8.634954583E0,4.540822311E1,-4.662953339E1,8.868907013E0,6.568772809E1
8.644993583E0,4.542274292E1,-5.025424576E1,1.088237000E0,6.774879372E1
8.655031584E0,4.282414673E1,-5.497812241E1,-6.244714050E0,6.996783504E1
8.665069583E0,3.809054031E1,-5.777775055E1,-9.139095154E0,6.980458996E1
8.675107583E0,3.246508850E1,-5.600798080E1,-8.473279724E0,6.528914423E1
8.685146583E0,2.565380264E1,-5.017700638E1,-6.313421173E0,5.670722040E1
8.695184584E0,1.834031113E1,-4.475662811E1,-4.254602509E0,4.855537473E1
8.705222583E0,1.002615051E1,-4.129118454E1,-4.133654022E0,4.269160000E1
8.715260583E0,9.894424438E-2,-3.662912933E1,-7.330106964E0,3.735549991E1
8.725299584E0,-1.259406052E1,-2.962085312E1,-1.861005020E1,3.717982340E1
8.735337583E0,-1.467548218E1,-2.604344238E1,-1.238060440E1,3.235598915E1
8.745375583E0,-3.904630280E0,-1.786430099E1,-3.047512665E0,1.853825022E1
8.755413583E0,4.565505981E-2,-2.476899261E0,-9.420210571E0,9.740507253E0
8.765452583E0,-1.043180695E0,7.079827423E0,-1.247475861E1,1.438164749E1
8.775490583E0,-6.262227631E0,5.699098663E0,-1.230725693E1,1.493866773E1
8.785528583E0,-1.314072372E1,1.248403931E0,-1.096215408E1,1.715826199E1
8.795566584E0,-1.740041565E1,-1.175804901E0,-8.283923492E0,1.930752108E1
8.805605583E0,-1.964948868E1,-2.902314606E0,-3.459456024E0,2.016168821E1
8.815643583E0,-2.168121368E1,-5.408253479E0,-1.076261902E-1,2.234582323E1
8.825681583E0,-1.972059082E1,-7.473957825E0,1.817520447E0,2.116754895E1
8.835719583E0,-1.571102875E1,-7.336244202E0,2.288590851E0,1.748984138E1
8.845758458E0,-9.947863312E0,-6.869514771E0,1.935624847E0,1.224323737E1
8.855796458E0,-4.529131622E0,-6.542594604E0,9.189390564E-1,8.010182670E0
8.865834458E0,-8.577163696E-2,-5.860762482E0,-3.137475586E-1,5.869781186E0
8.875872458E0,2.903811493E0,-4.548142090E0,-7.505392456E-1,5.448029627E0
8.885911458E0,4.780159607E0,-3.090922394E0,-5.412744141E-1,5.718103278E0
8.895949458E0,5.689518585E0,-1.968706055E0,3.549119568E-1,6.030952475E0
8.905987459E0,5.449417877E0,-1.859732666E0,1.835034027E0,6.043352602E0
8.916025458E0,4.890480194E0,-2.227966919E0,3.605552216E0,6.471525315E0
8.926064458E0,3.972588959E0,-2.219284973E0,5.240302734E0,6.940278206E0
8.936102459E0,3.164868622E0,-2.235900421E0,6.244714050E0,7.349292324E0
8.946140458E0,2.714754639E0,-2.035616913E0,6.624474335E0,7.442935521E0
8.956178458E0,2.493365021E0,-1.603465576E0,6.121071167E0,6.801138376E0
8.966217458E0,2.145189056E0,-1.052162018E0,4.730313263E0,5.299504181E0
8.976255459E0,1.601070557E0,-6.321354675E-1,2.895279236E0,3.368332530E0
8.986293458E0,8.208929443E-1,-4.311035156E-1,1.107546844E0,1.444429119E0
8.996331458E0,3.353027344E-2,-4.770579529E-1,-1.007405090E-1,4.887302117E-1
9.006370459E0,-8.725355530E-1,-6.252497864E-1,-1.090033264E0,1.529845778E0
9.016408458E0,-1.727258148E0,-8.800199890E-1,-1.531614990E0,2.470566811E0
9.026446458E0,-2.397564240E0,-1.198258209E0,-1.570983124E0,3.106786924E0
9.036484458E0,-2.873424683E0,-1.431024170E0,-1.385518799E0,3.496292597E0
9.046523458E0,-3.158432007E0,-1.692979431E0,-9.942324829E-1,3.718920586E0
9.056561458E0,-3.203338623E0,-1.740580444E0,-3.927832031E-1,3.666780231E0
9.066599458E0,-2.834206238E0,-1.573378143E0,1.040336609E-1,3.243311083E0
9.076637459E0,-2.118095398E0,-1.616039429E0,4.769082642E-1,2.706538942E0
9.086676458E0,-1.393003235E0,-1.475631409E0,6.435118103E-1,2.128862024E0
9.096714458E0,-8.723858643E-1,-1.252295837E0,5.330415344E-1,1.616612272E0
9.106752458E0,-5.936654663E-1,-1.229243774E0,3.743714905E-1,1.415497423E0
9.116790458E0,-4.534071350E-1,-1.136736145E0,2.842588806E-1,1.256403679E0
9.126829458E0,-5.757028198E-1,-1.019829254E0,2.369572449E-1,1.194836466E0
9.136867458E0,-6.301895142E-1,-1.153201904E0,4.546046448E-1,1.390567812E0
9.146905459E0,-7.023394775E-1,-1.106798401E0,7.162605286E-1,1.493757874E0
9.156943458E0,-8.065228271E-1,-9.361532593E-1,6.858737183E-1,1.413253252E0
9.166982458E0,-9.304650879E-1,-7.884104919E-1,4.561015320E-1,1.302069503E0
9.177020459E0,-1.096619568E0,-8.744815063E-1,1.592687988E-1,1.411615717E0
9.187058458E0,-1.293460236E0,-9.307644653E-1,-2.050735474E-2,1.593669483E0
9.197096458E0,-1.156045990E0,-5.981561279E-1,-1.954934692E-1,1.316225961E0
9.207135458E0,-6.637197876E-1,-2.335144043E-1,-5.855822754E-1,9.154012971E-1
9.217173459E0,7.903564453E-2,2.287243652E-1,-1.010249176E0,1.038828603E0
9.227211458E0,7.696994019E-1,8.303233337E-1,-1.507664795E0,1.885451442E0
9.237249458E0,8.454418945E-1,1.215771790E0,-2.413431244E0,2.831523161E0
9.247288459E0,3.608995056E-1,1.350791016E0,-3.563339996E0,3.827829248E0
9.257326458E0,2.573149109E-1,1.215622101E0,-4.068389740E0,4.253909159E0
9.267364458E0,6.286926270E-2,5.536985779E-1,-3.800596619E0,3.841232786E0
9.277402458E0,-5.807922363E-2,-1.074016571E0,-3.061433716E0,3.244882307E0
9.287441458E0,3.990701294E-1,-3.483555908E0,-1.875599670E0,3.976467384E0
9.297479458E0,3.589834900E0,-7.819589081E0,-5.963598633E-1,8.624878729E0
9.307517458E0,9.831106110E0,-1.697065933E1,-2.059716797E-1,1.961367762E1
9.317555459E0,1.919847656E1,-3.263678146E1,-2.593506775E0,3.795348843E1
9.327594458E0,2.870071655E1,-5.007417023E1,-7.097191315E0,5.815087084E1
9.337632458E0,3.544748657E1,-5.695551041E1,-1.054182816E1,6.790864901E1
9.347670458E0,4.518773163E1,-6.103632431E1,-7.582033081E0,7.632071279E1
9.357708458E0,5.018718521E1,-5.936894165E1,9.701325989E-1,7.774552045E1
9.367746458E0,5.029316483E1,-4.982778259E1,8.273894348E0,7.127880242E1
9.377785458E0,5.178571106E1,-4.405668365E1,1.241158997E1,6.911438931E1
9.387823459E0,4.526586914E1,-3.719420425E1,1.094000015E1,5.959942401E1
9.397861458E0,3.508598831E1,-3.268602905E1,5.271288300E0,4.824095305E1
9.407899458E0,2.569945770E1,-2.782952820E1,-1.467548218E0,3.790908155E1
9.417938459E0,1.805500443E1,-2.030497559E1,-8.765023041E0,2.854997105E1
9.427976458E0,1.263208145E1,-1.137574402E1,-1.354742798E1,2.173729143E1
9.438014458E0,8.644972687E0,-3.320544891E0,-1.412043640E1,1.688633457E1
9.448052458E0,5.621260529E0,2.363734589E0,-1.041608963E1,1.206982744E1
9.458091459E0,3.292702789E0,5.849535828E0,-5.064717865E0,8.408943341E0
9.468129458E0,1.481169891E0,8.966803436E0,-9.199868774E-1,9.134758014E0
9.478167458E0,4.921765137E-1,1.108055786E1,2.148332520E0,1.129762510E1
9.488205459E0,6.762936401E-1,1.123398880E1,3.693569183E0,1.184492848E1
9.498244458E0,1.247805176E0,9.769434357E0,3.815266113E0,1.056196577E1
9.508282458E0,1.226100311E0,7.224127350E0,2.800226898E0,7.844272345E0
9.518320458E0,4.619393921E-1,3.641028442E0,8.626560974E-1,3.770232309E0
9.528358459E0,-3.433859253E-1,3.427871704E-1,-1.326242065E0,1.412209246E0
9.538397458E0,-6.295907593E-1,-1.617386627E0,-3.398832092E0,3.816331172E0
9.548435458E0,-3.817062378E-2,-2.408042450E0,-4.349954224E0,4.972145129E0
9.558473459E0,1.391656036E0,-2.241588593E0,-3.552562408E0,4.425169557E0
9.568511458E0,2.887495422E0,-1.595083008E0,-1.902094574E0,3.807871241E0
9.578550458E0,3.926035767E0,-9.122030640E-1,-2.010319519E-1,4.035626979E0
9.588588458E0,4.548441467E0,5.777984619E-2,1.603016510E0,4.822999090E0
9.598626459E0,4.610412598E0,1.002165985E0,2.994822235E0,5.588309333E0
9.608664458E0,4.162843323E0,1.335223389E0,3.727997589E0,5.745437499E0
9.618703458E0,3.282673645E0,1.246158600E0,3.885021057E0,5.236625453E0
9.628741459E0,2.151326294E0,1.037791901E0,3.510499878E0,4.246036534E0
9.638779458E0,1.181343384E0,7.617658997E-1,2.597847748E0,2.953755643E0
9.648817458E0,6.957531738E-1,4.760101318E-1,1.737137604E0,1.930881969E0
9.658856458E0,5.658233643E-1,3.462300110E-1,8.032296753E-1,1.041733753E0
9.668894458E0,4.245172119E-1,2.547702026E-1,-4.334985352E-1,6.580605590E-1
9.678932458E0,1.901046753E-1,9.220825195E-2,-1.458716583E0,1.473939015E0
9.688970458E0,2.082170105E-1,1.948947144E-1,-2.009870453E0,2.030004313E0
9.699009459E0,1.974394226E-1,2.600093079E-1,-2.156565399E0,2.181137659E0
9.709047458E0,7.439529419E-2,2.130070496E-1,-1.980232086E0,1.993044349E0
9.719085458E0,-1.811233521E-1,1.787283325E-1,-1.478774872E0,1.500508116E0
9.729123458E0,-5.932164001E-1,3.742218018E-2,-6.228547668E-1,8.609611940E-1
9.739162458E0,-6.855743408E-1,1.721420288E-2,1.287322998E-1,6.977682356E-1
9.749200458E0,-3.498225403E-1,1.218466187E-1,7.797285461E-1,8.632491030E-1
9.759238458E0,2.409988403E-2,1.053808594E-1,1.129850464E0,1.135010132E0
9.769276459E0,2.326162720E-1,1.675016785E-1,1.339264984E0,1.369597693E0
9.779315458E0,3.579057312E-1,3.688330078E-1,1.555415497E0,1.638124436E0
9.789353458E0,6.927593994E-1,4.507127380E-1,1.523681488E0,1.733396329E0
9.799391459E0,1.102158051E0,4.849914551E-1,1.057999878E0,1.602913853E0
9.809429458E0,1.465302887E0,4.433779907E-1,3.504212952E-1,1.570506822E0
9.819468458E0,1.732048187E0,3.716770935E-1,2.839595032E-1,1.794092468E0
9.829506458E0,1.848805389E0,4.736151123E-1,4.694238281E-1,1.965388352E0
9.839544708E0,1.924398193E0,6.147715759E-1,1.033450928E0,2.269201031E0
9.849582708E0,1.784139862E0,7.851173401E-1,2.273472290E0,2.994702078E0
9.859621709E0,1.147064667E0,8.762777710E-1,3.453618164E0,3.743140193E0
9.869659708E0,-1.086740112E-1,6.427633667E-1,4.072281647E0,4.124128101E0
9.879697708E0,-1.630559235E0,3.465293884E-1,3.982318726E0,4.317136605E0
9.889735708E0,-3.171454926E0,-3.474275208E-1,2.599793701E0,4.115550937E0
9.899774709E0,-4.950655060E0,-1.154698792E0,5.881269836E-1,5.117441565E0
9.909812708E0,-4.906197510E0,-2.135459290E0,-1.442400513E0,5.541793899E0
9.919850708E0,-1.547182617E0,-4.641098785E0,-3.416495361E0,5.967077387E0
9.929888709E0,5.415588226E0,-1.073971664E1,-5.330265656E0,1.315605721E1
9.939927708E0,1.557630890E1,-2.344514557E1,-7.438481598E0,2.911403885E1
9.949965708E0,2.559557373E1,-4.274481171E1,-9.212442627E0,5.066676841E1
9.960003708E0,2.755005936E1,-5.692811737E1,-1.046907944E1,6.410474196E1
9.970041708E0,2.945395020E1,-5.973762497E1,-1.036803955E1,6.740634438E1
9.980080708E0,3.837240417E1,-5.938660492E1,-7.011868744E0,7.105192854E1
9.990118708E0,4.279256241E1,-5.278308701E1,-3.555705872E0,6.804337378E1
1.000015671E1,4.533996506E1,-4.701079056E1,-3.207829285E-1,6.531331994E1
1.001019471E1,4.365791290E1,-4.278223389E1,-1.110540619E0,6.113563769E1
1.002023371E1,3.680755829E1,-3.672073883E1,-5.327571259E0,5.226463453E1
1.003027171E1,2.876613052E1,-2.976620087E1,-1.027164001E1,4.265001252E1
1.004030971E1,2.241917908E1,-2.185395447E1,-1.426608353E1,3.440546549E1
1.005034771E1,1.795725769E1,-1.212284042E1,-1.451875809E1,2.608104101E1
1.006038671E1,1.400772079E1,-3.857328644E0,-1.115285751E1,1.831615289E1
1.007042471E1,1.041893372E1,1.718725891E0,-5.931565247E0,1.211163345E1
1.008046271E1,7.141499176E0,5.607788544E0,1.751358032E-2,9.080121671E0
1.009050071E1,3.550915833E0,8.356372833E0,5.911057892E0,1.083413936E1
1.010053971E1,8.696914673E-2,9.530231781E0,1.042626846E1,1.412586123E1
1.011057771E1,-2.283351746E0,9.068591766E0,1.264944534E1,1.573090968E1
1.012061571E1,-4.063599701E0,6.846911774E0,1.136302048E1,1.387484334E1
1.013065371E1,-5.764662323E0,4.076173553E0,8.469836884E0,1.102654340E1
1.014069271E1,-7.041357422E0,2.004331970E0,4.425547028E0,8.554737137E0
1.015073071E1,-7.345674591E0,3.465293884E-1,-5.240602112E-1,7.372493263E0
1.016076871E1,-6.492598572E0,-1.008752289E0,-4.875361633E0,8.181721607E0
1.017080671E1,-4.588857422E0,-1.816322937E0,-7.335046692E0,8.840789072E0
1.018084571E1,-1.986968079E0,-1.865570526E0,-7.774083710E0,8.238007833E0
1.019088371E1,8.446934509E-1,-1.353784790E0,-6.895859985E0,7.078073553E0
1.020092171E1,3.135379944E0,-8.849597168E-1,-5.000800781E0,5.968397569E0
1.021095971E1,4.588108978E0,-4.951702881E-1,-3.055146790E0,5.534424949E0
1.022099871E1,5.405559082E0,2.151026917E-1,-1.460363159E0,5.603480946E0
1.023103671E1,5.656736755E0,8.322692871E-1,-1.425036621E-1,5.719409950E0
1.024107471E1,5.492228851E0,8.684939575E-1,6.348298645E-1,5.596594363E0
1.025111271E1,4.892276459E0,1.007105713E0,8.571176147E-1,5.067867547E0
1.026115071E1,4.067641296E0,1.172511749E0,7.957452393E-1,4.307400609E0
1.027118971E1,3.129242706E0,8.571176147E-1,4.105961609E-1,3.270382199E0
1.028122771E1,2.230960693E0,3.565585327E-1,-7.065307617E-2,2.260378610E0
1.029126571E1,1.351539459E0,-3.288661194E-1,-1.594184875E-1,1.400080744E0
1.030130371E1,7.291337585E-1,-1.005608826E0,2.335144043E-1,1.263888494E0
1.031134271E1,3.595523071E-1,-1.453627167E0,9.219328308E-1,1.758485128E0
1.032138071E1,-7.873626709E-2,-1.705403595E0,1.403182068E0,2.209868941E0
1.033141871E1,-6.979985046E-1,-1.810485077E0,1.736688538E0,2.604063210E0
1.034145671E1,-1.298549652E0,-1.654210052E0,1.968556366E0,2.880599983E0
1.035149571E1,-1.801204376E0,-1.388362885E0,2.364183655E0,3.280434888E0
1.036153371E1,-2.240540771E0,-1.085841980E0,2.698438568E0,3.671599986E0
1.037157171E1,-2.738255768E0,-8.803193665E-1,2.740650787E0,3.972930099E0
1.038160971E1,-3.277584229E0,-6.962022400E-1,2.520458679E0,4.192847229E0
1.039164871E1,-3.531605988E0,-6.027964783E-1,2.312541046E0,4.264205733E0
1.040168671E1,-3.522325287E0,-6.026467896E-1,2.069446564E0,4.129475470E0
1.041172471E1,-3.372037811E0,-3.954776001E-1,1.620081024E0,3.761875072E0
1.042176271E1,-3.020718384E0,-2.692900085E-1,8.178991699E-1,3.141053281E0
1.043180171E1,-2.510878601E0,-1.681004333E-1,-1.487905884E-1,2.520894235E0
1.044183971E1,-1.960473175E0,1.609153748E-1,-9.529183960E-1,2.185726949E0
1.045187771E1,-1.349294128E0,4.911286926E-1,-1.469045105E0,2.054238438E0
1.046191571E1,-8.668473816E-1,6.243516541E-1,-1.705852661E0,2.012752511E0
1.047195471E1,-4.972659302E-1,6.328839111E-1,-1.573378143E0,1.767295740E0
1.048199271E1,-4.070036316E-1,5.379812622E-1,-1.130898285E0,1.316816891E0
1.049203071E1,-3.671864319E-1,2.585124207E-1,-5.313949585E-1,6.957263466E-1
1.050206871E1,-1.151106262E-1,-1.838177490E-1,1.761836243E-1,2.794281492E-1
1.051210771E1,4.408332825E-1,-1.057850189E0,4.743635559E-1,1.240323260E0
1.052214571E1,1.114881592E0,-2.189347229E0,5.873785400E-1,2.526106847E0
1.053218371E1,2.583178253E0,-4.165687408E0,-1.818717957E-1,4.904981022E0
1.054222171E1,6.398743744E0,-9.340875549E0,-2.230511627E0,1.153997659E1
1.055226071E1,1.272084686E1,-1.794603104E1,-5.059478760E0,2.257162600E1
1.056229871E1,2.198702774E1,-3.119273438E1,-9.577234039E0,3.934640363E1
1.057233671E1,2.875789764E1,-4.603482010E1,-1.392808640E1,5.603760281E1
1.058237471E1,2.873933624E1,-5.198988647E1,-1.534354294E1,6.135407120E1
1.059241371E1,3.289050385E1,-5.672992950E1,-1.141615997E1,6.656124137E1
1.060245171E1,3.358446075E1,-5.806664978E1,-4.297263794E0,6.721694948E1
1.061248971E1,2.950843689E1,-5.126629120E1,2.890638885E0,5.922276804E1
1.062252771E1,3.033292236E1,-4.642371140E1,7.968229980E0,5.602445759E1
1.063256671E1,3.074321915E1,-3.912578751E1,9.173224182E0,5.059763644E1
1.064260471E1,2.932566696E1,-3.133284302E1,5.404361572E0,4.325446703E1
1.065264271E1,2.652109909E1,-2.544887878E1,-1.823358307E0,3.680134188E1
1.066268071E1,2.267140457E1,-1.804183182E1,-1.101005447E1,3.099550903E1
1.067271971E1,1.767748947E1,-9.389823761E0,-1.748109787E1,2.657538724E1
1.068275771E1,1.278446457E1,-2.101929016E0,-1.738948837E1,2.168536248E1
1.069279571E1,8.510252838E0,2.663112030E0,-1.156764496E1,1.460571734E1
1.070283371E1,4.915777588E0,5.276976471E0,-5.133424988E0,8.852310550E0
1.071287171E1,2.133962402E0,6.454427948E0,-4.761598206E-1,6.814702036E0
1.072291071E1,-7.723937988E-2,7.191345520E0,2.767744446E0,7.705960396E0
1.073294871E1,-1.537303162E0,6.933282166E0,4.330794067E0,8.318021390E0
1.074298671E1,-1.894011383E0,5.691464539E0,4.678520966E0,7.607141785E0
1.075302471E1,-1.848206635E0,4.022435303E0,3.842958527E0,5.862097216E0
1.076306371E1,-1.863923950E0,1.933678894E0,2.314786377E0,3.545639932E0
1.077310171E1,-1.817221069E0,1.857637024E-1,8.351133728E-1,2.008535515E0
1.078313971E1,-1.729353790E0,-8.866062927E-1,-2.064207458E-1,1.954314400E0
1.079317871E1,-1.606159973E0,-1.585353241E0,-1.176403656E0,2.544999081E0
1.080321671E1,-1.195563812E0,-1.592837677E0,-1.746717682E0,2.649061599E0
1.081325471E1,-5.599855042E-1,-1.053958282E0,-1.681752777E0,2.062208580E0
1.082329271E1,3.008743286E-1,-2.685415649E-1,-1.181343384E0,1.248283671E0
1.083333071E1,1.346000977E0,5.804928589E-1,-6.075865173E-1,1.586774075E0
1.084336975E1,2.239942017E0,1.116378479E0,-3.348536682E-1,2.525028341E0
1.085340775E1,2.896925812E0,1.368753662E0,-2.695893860E-1,3.215329561E0
1.086344575E1,3.113375702E0,1.459165649E0,-3.144960022E-1,3.452706241E0
1.087348375E1,2.784359894E0,1.348695374E0,-4.258644104E-1,3.122979303E0
1.088352275E1,2.180216217E0,1.134041748E0,-5.873785400E-1,2.526738409E0
1.089356075E1,1.479223938E0,6.355783081E-1,-7.921527100E-1,1.794315792E0
1.090359875E1,7.023394775E-1,1.486408997E-1,-9.601034546E-1,1.198821714E0
1.091363675E1,1.704954529E-1,-1.829196167E-1,-9.529183960E-1,9.851810773E-1
1.092367575E1,-1.023870850E-1,-4.778063965E-1,-6.577322388E-1,8.193862127E-1
1.093371375E1,-3.165916443E-1,-6.725514221E-1,-2.239343262E-1,7.763390155E-1
1.094375175E1,-4.885839844E-1,-7.625143433E-1,2.149530029E-1,9.307777538E-1
1.095378975E1,-5.665718079E-1,-8.390052795E-1,7.450007629E-1,1.256964442E0
1.096382875E1,-6.388714600E-1,-6.541397095E-1,1.201102295E0,1.509537090E0
1.097386675E1,-6.930587769E-1,-4.730163574E-1,1.439706116E0,1.666381902E0
1.098390475E1,-7.707472229E-1,-4.571493530E-1,1.392703857E0,1.656098079E0
1.099394275E1,-9.434880066E-1,-5.583389282E-1,9.669891357E-1,1.461841293E0
1.100398175E1,-1.180145874E0,-5.502557373E-1,7.755372620E-1,1.515580320E0
1.101401975E1,-1.154848480E0,-3.938310242E-1,9.092092896E-1,1.521656801E0
1.102405775E1,-8.780740356E-1,-8.846603394E-2,9.451345825E-1,1.293104648E0
1.103409575E1,-6.155200195E-1,3.594026184E-1,9.719288635E-1,1.205272107E0
1.104413475E1,-5.719606018E-1,5.797444153E-1,9.062155151E-1,1.218387901E0
1.105417275E1,-6.366261292E-1,6.321354675E-1,5.376818848E-1,1.045939715E0
1.106421075E1,-4.915777588E-1,7.521858215E-1,-8.262817383E-2,9.023633515E-1
1.107424875E1,-3.365002441E-1,8.758287048E-1,-5.761518860E-1,1.101026489E0
1.108428775E1,-1.727407837E-1,8.008346558E-1,-9.610015869E-1,1.262814149E0
1.109432575E1,1.818717957E-1,4.550537109E-1,-1.270258484E0,1.361509400E0
1.110436375E1,7.608677673E-1,8.951385498E-2,-1.445244598E0,1.635745836E0
1.111440175E1,1.420396271E0,-4.894821167E-1,-1.705403595E0,2.272777976E0
1.112444075E1,2.704875183E0,-2.418820038E0,-2.174977112E0,4.230551450E0
1.113447875E1,5.761668549E0,-7.588320007E0,-2.617756348E0,9.880894357E0
1.114451675E1,1.130494125E1,-1.746567993E1,-4.271966400E0,2.123914709E1
1.115455475E1,1.881437531E1,-3.082210510E1,-7.281607819E0,3.683754462E1
1.116459375E1,2.436498276E1,-4.372901505E1,-1.133637589E1,5.132633398E1
1.117463175E1,2.616034927E1,-5.002447357E1,-1.443777649E1,5.826887008E1
1.118466975E1,2.955484039E1,-5.206772461E1,-1.371927063E1,6.142275574E1
1.119470775E1,3.246314255E1,-4.971551605E1,-9.558373260E0,6.014025823E1
1.120474675E1,3.416899521E1,-4.433929596E1,-4.956941986E0,5.619666070E1
1.121478475E1,3.670711716E1,-4.077805161E1,8.246351624E-1,5.487205086E1
1.122482275E1,3.514092407E1,-3.568534195E1,4.030817871E0,5.024515566E1
1.123486075E1,3.079111954E1,-3.040507233E1,2.779869232E0,4.336230089E1
1.124489975E1,2.614448227E1,-2.676748672E1,-8.735833740E-1,3.742720196E1
1.125493775E1,2.149380341E1,-2.176488968E1,-5.767506409E0,3.112809242E1
1.126497575E1,1.730790802E1,-1.503234009E1,-9.418114929E0,2.478378134E1
1.127501375E1,1.411070663E1,-7.394323425E0,-1.148322052E1,1.963803489E1
1.128505175E1,1.154998169E1,-1.781295776E-2,-1.135418884E1,1.619629583E1
1.129509075E1,9.593849487E0,5.441634064E0,-8.566685486E0,1.396572338E1
1.130512875E1,8.129893799E0,8.370742950E0,-4.127816162E0,1.237753517E1
1.131516675E1,6.558461609E0,9.784702606E0,4.183799744E-1,1.178680896E1
1.132520575E1,5.083878021E0,1.087488556E1,4.172573090E0,1.270902505E1
1.133524375E1,4.220772858E0,1.084824097E1,6.301446075E0,1.323659617E1
1.134528175E1,3.978875885E0,8.928782501E0,6.247707825E0,1.160122680E1
1.135531975E1,3.187172241E0,5.907016296E0,4.578977966E0,8.125142930E0
1.136535775E1,1.976489868E0,2.644251251E0,2.223027191E0,3.980003363E0
1.137539675E1,7.584727478E-1,3.647914124E-1,-4.405339050E-1,9.499598966E-1
1.138543475E1,3.258723450E-1,-1.049467621E0,-2.734064484E0,2.946639386E0
1.139547275E1,6.063890076E-1,-2.067949677E0,-4.127217407E0,4.655968967E0
1.140551075E1,1.470541992E0,-2.139051819E0,-4.544100494E0,5.233248106E0
1.141554975E1,2.582280121E0,-1.327888641E0,-3.748804321E0,4.741834319E0
1.142558775E1,3.593726807E0,-1.437011719E-2,-2.596799927E0,4.433784920E0
1.143562575E1,4.362827454E0,1.002315674E0,-1.822759552E0,4.833358303E0
1.144566375E1,4.828209686E0,1.710942078E0,-1.153650970E0,5.250699204E0
1.145570275E1,4.790188751E0,2.409539337E0,-6.441105652E-1,5.400617234E0
1.146574075E1,4.306694183E0,2.609673157E0,-4.950205994E-1,5.059946064E0
1.147577875E1,3.335962830E0,1.862876129E0,-6.183641052E-1,3.870572263E0
1.148581675E1,2.296973419E0,9.373507690E-1,-7.773335266E-1,2.599800139E0
1.149585575E1,1.165027313E0,2.950364685E-1,-1.000818787E0,1.563960806E0
1.150589375E1,3.055146790E-1,-3.359014893E-1,-1.284179535E0,1.362088876E0
1.151593175E1,3.847000122E-2,-7.147636414E-1,-1.264121246E0,1.452711096E0
1.152596975E1,-2.026785278E-1,-8.762777710E-1,-1.067430267E0,1.395832616E0
1.153600875E1,-2.022294617E-1,-9.815089417E-1,-6.321354675E-1,1.184842524E0
1.154604675E1,5.598358154E-2,-8.605604553E-1,4.311035156E-2,8.634564037E-1
1.155608475E1,2.827619934E-1,-4.610412598E-1,7.060816956E-1,8.894182081E-1
1.156612275E1,1.209484863E-1,-8.921447754E-2,1.143172760E0,1.153009852E0
1.157616175E1,-1.733395386E-1,-4.999603271E-2,1.429976349E0,1.441311402E0
1.158619975E1,-5.261558533E-1,-2.707868958E-1,1.425485687E0,1.543429613E0
1.159623775E1,-1.030906219E0,-5.275030518E-1,1.329385529E0,1.763035163E0
1.160627575E1,-1.250499573E0,-7.756869507E-1,1.322649536E0,1.978595770E0
1.161631475E1,-1.371448059E0,-9.050180054E-1,1.258582764E0,2.069772437E0
1.162635275E1,-1.231339417E0,-8.870553589E-1,1.211730194E0,1.941997433E0
1.163639075E1,-8.765771484E-1,-6.971003723E-1,1.119072876E0,1.583243673E0
1.164642875E1,-1.694476318E-1,-4.595443726E-1,1.153351593E0,1.253041670E0
1.165646775E1,7.439529419E-1,-2.227368164E-1,9.530680847E-1,1.229396780E0
1.166650575E1,1.693278809E0,3.332070923E-1,1.574725342E-1,1.732921720E0
1.167654375E1,2.735112305E0,1.079255676E0,-1.135987701E0,3.152158021E0
1.168658175E1,3.458408203E0,1.591640167E0,-2.614463196E0,4.618368058E0
1.169662075E1,3.986210632E0,1.374292145E0,-3.783681793E0,5.665227446E0
1.170665875E1,4.086651764E0,3.092568970E-1,-4.296515350E0,5.937710554E0
1.171669675E1,4.046385498E0,-1.355581055E0,-4.305346985E0,6.061917869E0
1.172673475E1,5.460195465E0,-3.675307159E0,-4.462370453E0,7.952003980E0
1.173677375E1,8.506809998E0,-6.202950897E0,-4.738995209E0,1.154558321E1
1.174681175E1,1.435649551E1,-9.803264008E0,-4.900509338E0,1.806178121E1
1.175684975E1,2.178599579E1,-1.582673813E1,-5.921087036E0,2.757126265E1
1.176688775E1,2.721595413E1,-2.533361847E1,-7.974666595E0,3.802756489E1
1.177692675E1,2.718197479E1,-3.551484650E1,-9.416618042E0,4.570379383E1
1.178696475E1,2.437950256E1,-4.594770126E1,-9.501491547E0,5.287560627E1
1.179700275E1,2.021396484E1,-5.654626144E1,-7.424710236E0,6.050793650E1
1.180704075E1,1.245020966E1,-5.519247665E1,-4.287534027E0,5.674152049E1
1.181707875E1,1.360565689E1,-4.733995605E1,-6.994953918E-1,4.926128939E1
1.182711775E1,2.171010361E1,-4.279525681E1,5.326822815E0,4.828185627E1
1.183715575E1,2.852797577E1,-3.913162537E1,1.138233032E1,4.974622547E1
1.184719396E1,3.112941605E1,-3.290202988E1,1.499072662E1,4.771064869E1
1.185723196E1,3.128823578E1,-2.459714996E1,1.431548080E1,4.229546637E1
1.186727096E1,3.087015518E1,-1.641995453E1,9.073531494E0,3.612354304E1
1.187730896E1,2.842948059E1,-9.797126770E0,7.406597900E-1,3.007935565E1
1.188734696E1,2.344185242E1,-3.726201324E0,-7.611072693E0,2.492656111E1
1.189738496E1,1.677247147E1,1.684297485E0,-1.359802277E1,2.165776720E1
1.190742396E1,1.088491470E1,4.392914886E0,-1.498129623E1,1.903203368E1
1.191746196E1,7.048093414E0,4.573738861E0,-1.145148651E1,1.420321271E1
1.192749996E1,3.736230469E0,4.758754120E0,-5.691464539E0,8.306499111E0
1.193753796E1,1.367855530E0,6.143075409E0,-3.607498169E-2,6.293624205E0
1.194757696E1,1.176253967E0,7.451654205E0,4.706961823E0,8.891918431E0
1.195761496E1,1.707199860E0,7.970475311E0,7.845934296E0,1.131378332E1
1.196765296E1,1.951342163E0,7.441175995E0,8.240364075E0,1.127308460E1
1.197769096E1,1.428629150E0,6.146817627E0,5.990692291E0,8.701306932E0
1.198772996E1,5.969586182E-1,4.818779297E0,3.298241272E0,5.869871293E0
1.199776796E1,-3.517684937E-2,3.325484619E0,1.014739838E0,3.477036425E0
1.200780596E1,-6.478527832E-1,1.614392853E0,-1.038690033E0,2.026044051E0
1.201784396E1,-1.275796967E0,1.969903564E-1,-2.643802185E0,2.942134105E0
1.202788296E1,-1.445094910E0,-9.798623657E-1,-3.428919525E0,3.847845977E0
1.203792096E1,-8.830137634E-1,-2.073488159E0,-3.442092133E0,4.114251415E0
1.204795896E1,8.021818542E-1,-2.634521484E0,-2.942431183E0,4.030148936E0
1.205799696E1,8.220904541E-1,-2.326611786E0,-1.031804352E0,2.674616858E0
1.206803596E1,1.228345642E0,-2.248324585E0,5.939648438E-1,2.629941195E0
1.207807396E1,3.740122375E0,-1.943408661E0,1.438358917E0,4.453563627E0
1.208811196E1,4.424798584E0,-1.193318481E0,2.007026367E0,5.003099674E0
1.209814996E1,3.663481750E0,-2.739303589E-1,2.112706604E0,4.237884563E0
1.210818896E1,2.906505890E0,4.767585754E-1,2.036215668E0,3.580677237E0
1.211822696E1,2.190694427E0,6.059399414E-1,1.275347900E0,2.606303427E0
1.212826496E1,1.053060150E0,2.936892700E-1,6.885681152E-2,1.095413314E0
1.213830296E1,-2.395019531E-3,8.083190918E-3,-7.309300232E-1,7.309786405E-1
1.214834196E1,-8.390052795E-1,-8.532257080E-2,-9.538165283E-1,1.273175467E0
1.215837996E1,-1.263073425E0,-1.399589539E-1,-7.574249268E-1,1.479403767E0
1.216841796E1,-1.336271210E0,-4.550537109E-2,-4.659809875E-1,1.415920113E0
1.217845596E1,-1.406624908E0,1.447489929E-1,-3.098556519E-1,1.447603685E0
1.218849396E1,-1.336869965E0,2.745291138E-1,-2.233355713E-1,1.382919489E0
1.219853296E1,-1.155447235E0,3.944297791E-1,-1.122665405E-2,1.220966503E0
1.220857096E1,-9.114546204E-1,4.984634399E-1,2.017803955E-1,1.058267761E0
1.221860896E1,-5.273533630E-1,5.490582275E-1,3.917353821E-1,8.561676917E-1
1.222864696E1,-4.894821167E-2,5.164260864E-1,6.233038330E-1,8.109250880E-1
1.223868596E1,3.041674805E-1,4.167333984E-1,8.008346558E-1,9.526388232E-1
1.224872396E1,6.873706055E-1,3.001258850E-1,9.815089417E-1,1.235278794E0
1.225876196E1,1.103205872E0,2.975811768E-1,1.166823578E0,1.633124311E0
1.226879996E1,1.569785614E0,3.595523071E-1,1.156944122E0,1.982933291E0
1.227883896E1,2.172731781E0,5.336402893E-1,9.641450500E-1,2.436208330E0
1.228887696E1,2.650687866E0,9.592053223E-1,7.436535645E-1,2.915345887E0
1.229891496E1,3.005599823E0,1.180594940E0,5.542973328E-1,3.276382188E0
1.230895296E1,3.562292175E0,4.628375244E-1,2.068698120E-1,3.598185548E0
1.231899196E1,5.245990906E0,-1.934577026E0,-2.677931213E-1,5.597742582E0
1.232902996E1,8.437953186E0,-6.621181183E0,-2.326162720E-1,1.072815010E1
1.233906796E1,1.333666626E1,-1.383213593E1,5.119354248E-1,1.922125722E1
1.234910596E1,1.941732147E1,-2.375140869E1,3.020718384E-1,3.067984738E1
1.235914496E1,2.582609436E1,-3.528028427E1,-2.335593109E0,4.378516419E1
1.236918296E1,3.075863708E1,-4.417284210E1,-7.165748749E0,5.430176507E1
1.237922096E1,3.435296265E1,-4.743845123E1,-8.248746643E0,5.914874909E1
1.238925896E1,3.878853882E1,-4.776162918E1,-2.989732819E0,6.160083172E1
1.239929796E1,4.059603012E1,-4.554908020E1,4.495301971E0,6.117976878E1
1.240933596E1,4.095034332E1,-4.230113434E1,1.212299011E1,6.011059369E1
1.241937396E1,3.911156708E1,-4.011163742E1,1.656635010E1,5.842176043E1
1.242941196E1,3.412124451E1,-3.621434189E1,1.630514328E1,5.236024811E1
1.243945096E1,2.862302811E1,-2.972578491E1,1.286619461E1,4.322544378E1
1.244948896E1,2.523183014E1,-2.352807312E1,8.264463959E0,3.547558092E1
1.245952696E1,2.217174362E1,-1.705029373E1,3.393742676E0,2.817474438E1
1.246956496E1,1.824316315E1,-1.009889923E1,-5.107379150E-1,2.085813080E1
1.247960296E1,1.390353745E1,-3.907025299E0,-3.078049164E0,1.476643447E1
1.248964196E1,9.941576385E0,8.680448914E-1,-3.949387207E0,1.073247885E1
1.249967996E1,6.451733551E0,3.955674133E0,-3.025209045E0,8.150098983E0
1.250971796E1,2.749931488E0,5.386548615E0,-1.678459625E0,6.276484357E0
1.251975696E1,-4.581971741E-1,6.022426300E0,-4.830455017E-1,6.059116779E0
1.252979496E1,-3.402723999E0,5.795348511E0,2.859054565E-1,6.726539742E0
1.253983296E1,-6.324947205E0,4.321213989E0,6.935078430E-1,7.691475841E0
1.254987096E1,-8.708440704E0,2.172282715E0,4.134402466E-1,8.984802977E0
1.255990896E1,-1.036639297E1,6.505471802E-1,3.718267822E-1,1.039343880E1
1.256994796E1,-1.048629364E1,-8.499325562E-1,7.885601807E-1,1.055019274E1
1.257998596E1,-9.852810974E0,-2.086511078E0,1.445693665E0,1.017454877E1
1.259002396E1,-8.430019684E0,-2.757116547E0,2.360142059E0,9.178082265E0
1.260006196E1,-5.923931122E0,-3.184627533E0,3.558549957E0,7.609079462E0
1.261010096E1,-1.890568542E0,-3.128793640E0,4.772824860E0,6.011942797E0
1.262013896E1,3.248245239E0,-2.000290375E0,5.328319702E0,6.553109916E0
1.263017696E1,7.721243591E0,-5.240602112E-1,4.989424438E0,9.207963832E0
1.264021496E1,1.022299118E1,3.279679871E-1,4.233047333E0,1.106958903E1
1.265025396E1,1.039932449E1,5.182223511E-1,3.171305237E0,1.088446973E1
1.266029196E1,9.107061768E0,3.775149536E-1,2.101779327E0,9.354066919E0
1.267032996E1,7.197632446E0,-1.115180969E-1,1.561852112E0,7.365984736E0
1.268036796E1,4.909340973E0,-7.357200623E-1,1.346899109E0,5.143641707E0
1.269040696E1,2.912194061E0,-9.327104187E-1,9.831555176E-1,3.212073746E0
1.270044496E1,1.956132202E0,-8.884025574E-1,4.622387695E-1,2.197584350E0
1.271048296E1,1.957180023E0,-7.042854309E-1,2.871029663E-1,2.099761826E0
1.272052096E1,2.267185364E0,-3.556604004E-1,6.710545349E-1,2.391011916E0
1.273055996E1,1.578766937E0,-5.617817688E-1,6.691085815E-1,1.804386348E0
1.274059796E1,-2.667453003E-1,-2.994373169E0,-1.440753937E0,3.333645997E0
1.275063596E1,-6.902146912E-1,-2.441273346E0,-1.728305969E0,3.069731811E0
1.276067396E1,-1.389410706E0,-6.107299805E-2,-1.021775208E0,1.725751023E0
1.277071296E1,-4.035607910E-1,1.884730682E0,7.430548096E-1,2.065720578E0
1.278075096E1,4.150868225E-1,1.986668701E0,2.135159912E0,2.945854282E0
1.279078896E1,3.126099243E0,1.114432526E0,3.314856720E0,4.690706920E0
1.280082696E1,8.715476074E0,1.565444641E0,4.158352661E0,9.782741793E0
1.281086596E1,1.031699570E1,3.071762238E0,2.646496582E0,1.108512822E1
1.282090396E1,1.023646317E1,3.498973846E0,7.204518127E-1,1.084191159E1
1.283094196E1,8.442593536E0,3.260070648E0,-1.068478088E0,9.113017704E0
1.284098058E1,4.910688171E0,2.947370911E0,-1.751358032E-1,5.729967378E0
1.285101958E1,1.894161072E0,2.718496857E0,1.644480286E0,3.698971037E0
1.286105758E1,1.423390045E0,3.166515198E0,3.794758759E0,5.143253032E0
1.287109558E1,4.986730042E0,4.135300598E0,6.568490753E0,9.225684707E0
1.288113358E1,1.092009155E1,5.860163727E0,8.641829224E0,1.510864424E1
1.289117258E1,1.587239319E1,7.302564240E0,9.201964417E0,1.974680883E1
1.290121058E1,1.856379639E1,7.574997711E0,9.913434906E0,2.236674581E1
1.291124858E1,2.061692688E1,6.939419403E0,1.330598007E1,2.550024159E1
1.292128658E1,2.037143738E1,6.990163879E0,1.870719818E1,2.852748001E1
1.293132558E1,1.964110611E1,4.830155640E0,2.251423141E1,3.026539392E1
1.294136358E1,1.912542847E1,1.953886871E0,2.297766769E1,2.995952103E1
1.295140158E1,1.813404007E1,9.041198730E-2,2.021516235E1,2.715703173E1
1.296143958E1,1.735101837E1,2.905458069E-1,1.510987885E1,2.300979561E1
1.297147758E1,1.607477234E1,3.528163147E0,9.736951904E0,1.912209385E1
1.298151658E1,1.299328033E1,7.336693268E0,5.908962250E0,1.604893258E1
1.299155458E1,9.461524658E0,8.577762451E0,4.149521027E0,1.342821590E1
1.300159258E1,5.702242126E0,7.807164917E0,5.050347748E0,1.090749291E1
1.301163058E1,2.457888794E0,6.251450043E0,6.856641541E0,9.598717528E0
1.302166958E1,2.493814087E-1,3.326382751E0,7.403155060E0,8.119958013E0
1.303170758E1,-2.048939209E0,6.999444580E-1,7.804470520E0,8.099248991E0
1.304174558E1,-3.122506714E0,-9.562115479E-1,8.315657501E0,8.933898834E0
1.305178358E1,-1.901046753E0,-2.635419617E0,8.945248260E0,9.517188753E0
1.306182258E1,1.002315674E0,-3.930376740E0,9.850266266E0,1.065271062E1
1.307186058E1,3.290307770E0,-4.764142914E0,1.030561935E1,1.182070105E1
1.308189858E1,5.100194092E0,-6.079308014E0,1.073208252E1,1.334719300E1
1.309193658E1,5.598208466E0,-7.348219299E0,1.051144135E1,1.399380806E1
1.310197558E1,6.208639069E0,-6.058052216E0,9.531878357E0,1.288813023E1
1.311201358E1,6.978787537E0,-3.745960236E0,8.306526489E0,1.147754660E1
1.312205158E1,6.964567108E0,-3.016527100E0,6.344406738E0,9.892225614E0
1.313208958E1,6.315067749E0,-2.854264526E0,3.506907349E0,7.766936707E0
1.314212858E1,5.618416443E0,-1.818717957E0,2.113604736E-1,5.909231048E0
1.315216658E1,5.122647400E0,-4.724176025E-1,-2.715503082E0,5.817099945E0
1.316220458E1,4.257596283E0,4.779560852E-1,-4.716990967E0,6.372250145E0
1.317224258E1,3.602857819E0,1.205293579E0,-5.909710693E0,7.025524717E0
1.318228158E1,3.253334656E0,1.472338257E0,-6.275250549E0,7.220161756E0
1.319231958E1,2.955154724E0,1.400787048E0,-6.051016846E0,6.878222784E0
1.320235758E1,2.365231476E0,1.129700775E0,-5.531596985E0,6.121201596E0
1.321239558E1,1.303040314E0,5.376818848E-1,-4.591851196E0,4.803343968E0
1.322243458E1,1.122665405E-2,6.421646118E-2,-2.662363586E0,2.663161591E0
1.323247258E1,-3.132984924E-1,-2.454895020E-1,-6.364764404E-1,7.506818901E-1
1.324251058E1,2.290237427E-1,-8.391549683E-1,5.879772949E-1,1.049928681E0
1.325254858E1,4.803511047E-1,-1.279239807E0,1.840722198E0,2.292476800E0
1.326258758E1,9.848020935E-1,-1.482666779E0,2.946023712E0,3.441974964E0
1.327262558E1,1.711391144E0,-1.587299194E0,3.536845093E0,4.237646940E0
1.328266358E1,1.967358856E0,-1.502725067E0,3.840862885E0,4.569563567E0
1.329270158E1,2.139949951E0,-1.250649261E0,3.982019348E0,4.690414423E0
1.330274058E1,2.541115723E0,-1.260229340E0,3.857178955E0,4.787825874E0
1.331277858E1,2.327060852E0,-1.312470703E0,3.594624939E0,4.478740895E0
1.332281658E1,2.134860535E0,-1.161883850E0,3.419040070E0,4.194930104E0
1.333285458E1,2.542163544E0,-7.135661316E-1,3.344345398E0,4.261034880E0
1.334289358E1,3.094664612E0,3.323089600E-2,3.284469910E0,4.512847875E0
1.335293158E1,3.106639709E0,7.414082336E-1,3.037333832E0,4.407526887E0
1.336296958E1,3.273842010E0,1.505269775E0,2.915786591E0,4.635265909E0
1.337300758E1,3.961511993E0,2.372566223E0,3.053649902E0,5.536011695E0
1.338304658E1,4.720583496E0,2.850372620E0,3.211122437E0,6.381209910E0
1.339308458E1,4.568948822E0,3.035986633E0,2.908002777E0,6.208783160E0
1.340312258E1,3.500770111E0,2.858605499E0,2.132764893E0,4.997569695E0
1.341316058E1,2.076631622E0,2.314187622E0,1.545236664E0,3.472120331E0
1.342319858E1,1.242416382E0,2.111509094E0,1.290167084E0,2.768862623E0
1.343323758E1,1.213526459E0,2.671195221E0,7.958949280E-1,3.039963669E0
1.344327558E1,2.024839325E0,3.657943268E0,3.782633972E-1,4.198047932E0
1.345331358E1,3.583697662E0,5.300926666E0,2.588117981E-1,6.403881323E0
1.346335158E1,6.900949402E0,7.511978760E0,1.808239746E-1,1.020223627E1
1.347339058E1,1.181642761E1,9.793683929E0,4.171824646E-1,1.535311850E1
1.348342858E1,1.568887482E1,1.194545929E1,1.500928802E0,1.977593431E1
1.349346658E1,1.897349442E1,1.430649948E1,4.242777100E0,2.413857028E1
1.350350458E1,2.234882538E1,1.516990402E1,7.426805878E0,2.801345087E1
1.351354358E1,2.645104477E1,1.402852753E1,1.037971527E1,3.168904926E1
1.352358158E1,3.072495712E1,1.209903992E1,1.219903198E1,3.520264391E1
1.353361958E1,3.236913803E1,9.431586914E0,1.524070679E1,3.699993340E1
1.354365758E1,3.444561996E1,7.681875458E0,1.899669617E1,4.007975063E1
1.355369658E1,3.999053925E1,8.011190643E0,2.216171448E1,4.641728119E1
1.356373458E1,4.754802338E1,8.367150421E0,2.502585846E1,5.437938327E1
1.357377258E1,5.389377731E1,7.980953522E0,2.713452347E1,6.086474526E1
1.358381058E1,5.653548386E1,7.747439117E0,2.731355118E1,6.326384296E1
1.359384958E1,5.523932922E1,6.420298920E0,2.539274551E1,6.113423964E1
1.360388758E1,4.915837463E1,3.963907013E0,2.174677734E1,5.389972802E1
1.361392558E1,4.125331329E1,1.598376160E0,1.819660995E1,4.511659648E1
1.362396358E1,3.456851440E1,-5.987548828E-4,1.541943512E1,3.785156758E1
1.363400258E1,2.878334473E1,-3.555107117E-1,1.267144958E1,3.145112011E1
1.364404058E1,2.343900833E1,-3.814068604E-1,9.420959015E0,2.526434348E1
1.365407858E1,1.873923157E1,-7.176077271E-1,6.463259583E0,1.983551071E1
1.366411658E1,1.485076767E1,-1.538051605E0,3.908821564E0,1.543339850E1
1.367415558E1,1.146810196E1,-2.354004822E0,1.188678131E0,1.176739805E1
1.368419358E1,8.575816498E0,-3.236868896E0,-1.753004608E0,9.332468806E0
1.369423158E1,5.984255676E0,-4.241878967E0,-4.862937469E0,8.800739401E0
1.370426958E1,3.565136261E0,-5.192252655E0,-7.930807800E0,1.012755630E1
1.371430858E1,1.943408661E0,-5.904920654E0,-1.005249573E1,1.181937374E1
1.372434658E1,7.514373779E-1,-6.471492462E0,-1.069001999E1,1.251884181E1
1.373438458E1,-4.317022705E-1,-6.758445740E0,-1.010967682E1,1.216834093E1
1.374442258E1,-1.323397980E0,-6.750063171E0,-8.662186890E0,1.106111282E1
1.375446158E1,-1.390608215E0,-6.503076782E0,-6.908284149E0,9.588961817E0
1.376449958E1,-9.882449341E-1,-6.149961090E0,-5.282215576E0,8.167034398E0
1.377453758E1,-3.215313721E-1,-5.703589325E0,-3.698209534E0,6.805223535E0
1.378457558E1,2.643502808E-1,-5.001399536E0,-2.622845764E0,5.653600472E0
1.379461358E1,5.501060486E-1,-4.410129089E0,-1.975292358E0,4.863500298E0
1.380465258E1,7.012916565E-1,-4.071383514E0,-1.688937836E0,4.463237023E0
1.381469058E1,1.000220032E0,-4.063150635E0,-1.663790131E0,4.503091248E0
1.382472858E1,1.264270935E0,-4.113745422E0,-1.713486786E0,4.632204590E0
1.383476658E1,1.406026154E0,-3.958069153E0,-1.841770020E0,4.586429741E0
1.384480475E1,1.340312805E0,-3.842509460E0,-2.176473999E0,4.615014240E0
1.385484275E1,9.719288635E-1,-3.875440979E0,-2.691852264E0,4.817650580E0
1.386488075E1,5.590873718E-1,-4.023034058E0,-2.906056824E0,4.994251494E0
1.387491875E1,4.059558105E-1,-3.971541138E0,-2.516117706E0,4.718981611E0
1.388495775E1,4.302053833E-1,-3.646716614E0,-2.018702087E0,4.190319421E0
1.389499575E1,4.475692749E-2,-3.526067505E0,-1.516795807E0,3.838726970E0
1.390503375E1,-4.596940613E-1,-3.529660034E0,-1.056502991E0,3.712952620E0
1.391507175E1,-6.741979980E-1,-3.458707581E0,-5.237608337E-1,3.562516874E0
1.392511075E1,-6.251000977E-1,-3.252137146E0,-6.646179199E-2,3.312335025E0
1.393514875E1,-3.912863159E-1,-2.944676514E0,4.165837097E-1,2.999627767E0
1.394518675E1,3.963757324E-1,-2.298769684E0,8.330177307E-1,2.476968777E0
1.395522475E1,1.401535492E0,-1.592089233E0,1.191073151E0,2.432633370E0
1.396526375E1,2.202070770E0,-8.306227112E-1,1.591640167E0,2.841191332E0
1.397530175E1,3.084934845E0,1.384620667E-1,2.100881195E0,3.734929255E0
1.398533975E1,3.915707245E0,1.265468445E0,2.400707703E0,4.764196793E0
1.399537775E1,4.732708282E0,2.429447937E0,2.642754364E0,5.940109056E0
1.400541675E1,5.950276337E0,4.017046509E0,3.325334930E0,7.912035360E0
1.401545475E1,6.862778778E0,5.937103729E0,4.162693634E0,9.983734348E0
1.402549275E1,6.661297760E0,7.886649628E0,4.717739410E0,1.135029495E1
1.403553075E1,5.093607788E0,9.449549561E0,5.141059113E0,1.190249201E1
1.404556975E1,1.930385742E0,1.123862915E1,5.391338654E0,1.261347322E1
1.405560775E1,-2.527194672E0,1.351419708E1,5.100343781E0,1.466402886E1
1.406564575E1,-7.204967194E0,1.550281174E1,4.513713684E0,1.768112935E1
1.407568375E1,-1.154264694E1,1.750519775E1,3.466641083E0,2.125281740E1
1.408572275E1,-1.471844284E1,1.772748550E1,6.752458191E-1,2.305107934E1
1.409576075E1,-1.814960770E1,1.604693024E1,-4.066743164E0,2.456523213E1
1.410579875E1,-2.123993134E1,1.294732590E1,-1.031445099E1,2.692871757E1
1.411583675E1,-2.072051147E1,8.375532990E0,-1.474104584E1,2.677288892E1
1.412587575E1,-1.581521210E1,2.774929504E0,-1.432595901E1,2.151869580E1
1.413591375E1,-8.771010590E0,-3.367098083E0,-9.404493256E0,1.329332425E1
1.414595175E1,-1.561253357E0,-8.325387268E0,-2.274071045E0,8.770460896E0
1.415598975E1,4.879552917E0,-1.289658142E1,3.240760803E0,1.416454657E1
1.416602875E1,9.200467529E0,-1.641037445E1,6.968908081E0,2.006276831E1
1.417606675E1,1.155043076E1,-1.858624969E1,9.067543945E0,2.368715858E1
1.418610475E1,1.399559601E1,-1.964784210E1,9.026529236E0,2.575640963E1
1.419614275E1,1.692186081E1,-1.953168365E1,7.221133575E0,2.683245814E1
1.420618075E1,1.941148361E1,-1.900462967E1,4.209396515E0,2.749001026E1
1.421621975E1,2.085268661E1,-1.805635162E1,9.177415466E-1,2.759906923E1
1.422625775E1,2.152074738E1,-1.690704163E1,-2.203268280E0,2.745623818E1
1.423629575E1,2.129801056E1,-1.606234818E1,-3.956572266E0,2.696773529E1
1.424633375E1,2.097513199E1,-1.555595123E1,-4.213438110E0,2.645178333E1
1.425637275E1,2.050316345E1,-1.483579880E1,-3.486399994E0,2.554673409E1
1.426641075E1,1.954530533E1,-1.426653259E1,-2.204914856E0,2.429844773E1
1.427644875E1,1.861783401E1,-1.387015686E1,-6.530918884E-1,2.322566520E1
1.428648675E1,1.775966858E1,-1.320359299E1,4.827461243E-1,2.213535045E1
1.429652575E1,1.721210724E1,-1.221534805E1,6.864724731E-1,2.111735325E1
1.430656375E1,1.708367432E1,-1.108998825E1,3.088078308E-1,2.036995655E1
1.431660175E1,1.686348221E1,-1.021086639E1,-3.700305176E-1,1.971739707E1
1.432663975E1,1.613569565E1,-9.793534241E0,-8.066725159E-1,1.889245107E1
1.433667875E1,1.529594193E1,-9.402547302E0,-5.748046875E-1,1.796396770E1
1.434671675E1,1.459015961E1,-8.948691101E0,2.647993469E-1,1.711788388E1
1.435675475E1,1.448986816E1,-8.529862061E0,1.483864288E0,1.687947509E1
1.436679275E1,1.457728638E1,-7.595205688E0,2.708318024E0,1.665891395E1
1.437683175E1,1.513323029E1,-6.246061249E0,3.586092682E0,1.675971362E1
1.438686975E1,1.560295349E1,-4.421206055E0,4.696184235E0,1.688352354E1
1.439690775E1,1.572030945E1,-2.735860748E0,5.511239319E0,1.688155271E1
1.440694575E1,1.520777527E1,-2.056723022E0,6.175408173E0,1.654213421E1
1.441698475E1,1.452579346E1,-1.655108185E0,6.231242065E0,1.589233892E1
1.442702275E1,1.451321960E1,-8.184979248E-1,5.468578033E0,1.553089913E1
1.443706075E1,1.532647842E1,3.305126953E-1,4.037703552E0,1.585286187E1
1.444709875E1,1.600202362E1,1.698368225E0,2.387535095E0,1.626805269E1
1.445713775E1,1.600666397E1,3.144960022E0,8.375083923E-1,1.633418150E1
1.446717575E1,1.527408737E1,4.648583221E0,-3.421884155E-1,1.596947601E1
1.447721375E1,1.388632324E1,5.424120483E0,-1.904788971E0,1.502928066E1
1.448725175E1,1.244107864E1,5.482050018E0,-3.651506653E0,1.407717340E1
1.449728975E1,1.137888748E1,5.513185272E0,-5.066364441E0,1.362139276E1
1.450732875E1,1.093521011E1,5.176535339E0,-5.991141357E0,1.350070787E1
1.451736675E1,1.106469086E1,4.106560364E0,-6.786437531E0,1.361421890E1
1.452740475E1,1.229528183E1,2.227068787E0,-7.006330261E0,1.432558740E1
1.453744275E1,1.463985626E1,-4.628375244E-1,-7.029082947E0,1.624646475E1
1.454748175E1,1.769500305E1,-5.103038177E0,-7.352560272E0,1.982963122E1
1.455751975E1,2.065629501E1,-1.193932205E1,-7.551496582E0,2.502508812E1
1.456755775E1,2.266826111E1,-1.940639420E1,-6.642287292E0,3.057087139E1
1.457759575E1,2.252246429E1,-2.505849060E1,-3.712579651E0,3.389649830E1
1.458763475E1,2.415092789E1,-2.822066483E1,-7.288343811E-1,3.715110282E1
1.459767275E1,3.018757462E1,-3.207425125E1,8.464897156E-1,4.405410082E1
1.460771075E1,3.592723892E1,-3.314213058E1,2.906356201E0,4.896543906E1
1.461774875E1,4.113999893E1,-2.995525772E1,3.528163147E0,5.101239959E1
1.462778775E1,4.664899292E1,-2.599194946E1,3.601061554E0,5.352268324E1
1.463782575E1,4.925103195E1,-2.151505920E1,5.452411652E0,5.402120615E1
1.464786375E1,4.771313004E1,-1.722662704E1,7.445966034E0,5.127125771E1
1.465790175E1,4.295257965E1,-1.508518021E1,6.146967316E0,4.593769659E1
1.466794075E1,3.536650497E1,-1.434107758E1,1.415755920E0,3.818979635E1
1.467797875E1,2.720906845E1,-1.301214111E1,-4.928351440E0,3.056039709E1
1.468801675E1,2.029075516E1,-1.057146652E1,-1.018242554E1,2.504301178E1
1.469805475E1,1.467159027E1,-7.001839600E0,-1.215876572E1,2.030066262E1
1.470809275E1,1.086425766E1,-4.085753632E0,-1.129206802E1,1.619371105E1
1.471813175E1,7.001240845E0,-3.316952362E0,-9.762848053E0,1.246325593E1
1.472816975E1,3.226989441E0,-3.986809387E0,-7.739206238E0,9.284579858E0
1.473820775E1,1.508712616E0,-3.906426544E0,-3.358416138E0,5.367992274E0
1.474824575E1,-3.038681030E-1,-4.743485870E0,-1.222058716E0,4.907791920E0
1.475828475E1,-7.003935242E-1,-5.354515228E0,3.472778320E-1,5.411283241E0
1.476832275E1,1.951192474E0,-4.011657715E0,1.554367676E0,4.724045783E0
1.477836075E1,3.185825043E0,-4.995861053E0,3.047362976E0,6.662922030E0
1.478839875E1,4.115691376E0,-5.659131775E0,4.437073059E0,8.285668668E0
1.479843775E1,4.375700684E0,-6.148164825E0,4.743186493E0,8.913164719E0
1.480847575E1,4.725822601E0,-6.579717407E0,4.734504547E0,9.383049276E0
1.481851375E1,5.728437653E0,-6.857539673E0,4.240980835E0,9.890741466E0
1.482855175E1,7.088359680E0,-6.649472351E0,3.263363800E0,1.025231041E1
1.483859075E1,8.329728241E0,-6.456523590E0,2.368225250E0,1.080183134E1
1.484862908E1,9.032067719E0,-6.423442383E0,1.534608765E0,1.118900726E1
1.485866708E1,9.015601959E0,-6.718628540E0,8.846603394E-1,1.127846054E1
1.486870508E1,8.827293549E0,-7.064708862E0,4.722679138E-1,1.131610621E1
1.487874408E1,8.938512268E0,-7.204518127E0,4.611909485E-1,1.148976850E1
1.488878208E1,9.311985626E0,-7.048991547E0,6.806346130E-1,1.169891540E1
1.489882008E1,9.820478210E0,-6.821764069E0,6.405180359E-1,1.197449459E1
1.490885808E1,1.025771896E1,-6.715784454E0,4.954696655E-1,1.227061732E1
1.491889708E1,1.061427750E1,-6.756948853E0,3.122506714E-1,1.258637140E1
1.492893508E1,1.082444046E1,-6.741231537E0,1.095721436E-1,1.275243977E1
1.493897308E1,1.084734283E1,-6.865922241E0,-5.718109131E-2,1.283779593E1
1.494901108E1,1.080542999E1,-7.116351471E0,-1.398092651E-1,1.293906188E1
1.495905008E1,1.065259781E1,-7.388784943E0,-1.381626892E-1,1.296499410E1
1.496908808E1,1.070244415E1,-7.440277863E0,-1.362167358E-1,1.303528291E1
1.497912608E1,1.102187988E1,-7.410789185E0,-1.916015625E-1,1.328300959E1
1.498916408E1,1.138457565E1,-7.768994293E0,-2.673440552E-1,1.378540199E1
1.499920308E1,1.100227066E1,-8.123008118E0,-1.541793823E-1,1.367687800E1
1.500924108E1,1.028107040E1,-8.116421814E0,1.269360352E-1,1.309934443E1
1.501927908E1,9.331295471E0,-8.284971313E0,4.393363953E-1,1.248626611E1
1.502931708E1,8.047565002E0,-8.940757599E0,6.243516541E-1,1.204534200E1
1.503935508E1,6.414461060E0,-9.631571045E0,9.533674622E-1,1.161126096E1
1.504939408E1,4.655917969E0,-9.843081207E0,1.902992706E0,1.105374149E1
1.505943208E1,2.811902618E0,-9.378746796E0,3.199596405E0,1.030073322E1
1.506947008E1,9.816586304E-1,-8.457113342E0,4.358187103E0,9.564528978E0
1.507950808E1,-1.355880432E0,-7.311545563E0,5.095853119E0,9.014700731E0
1.508954708E1,-4.092040558E0,-6.623725891E0,4.742138672E0,9.116272253E0
1.509958508E1,-7.407645721E0,-6.313421173E0,3.085383911E0,1.021039157E1
1.510962308E1,-1.088940536E1,-6.090983734E0,1.700463867E-1,1.247830709E1
1.511966108E1,-1.404319702E1,-6.304439850E0,-4.466861115E0,1.602841828E1
1.512970008E1,-1.701841003E1,-5.037175140E0,-1.067235672E1,2.070986749E1
1.513973808E1,-1.913590668E1,-2.306104431E0,-1.433314407E1,2.401957662E1
1.514977608E1,-1.807431427E1,-1.909878387E0,-1.412552582E1,2.301866528E1
1.515981408E1,-1.364756973E1,-4.368815002E0,-1.103595062E1,1.808687121E1
1.516985308E1,-7.661517792E0,-8.099656677E0,-6.346652069E0,1.282900174E1
1.517989108E1,-1.400487671E0,-1.217238739E1,-6.508465576E-1,1.226996258E1
1.518992908E1,4.694986725E0,-1.504311768E1,4.931195526E0,1.651226753E1
1.519996708E1,8.941356354E0,-1.653296951E1,8.996441803E0,2.083801573E1
1.521000608E1,1.109926895E1,-1.663760193E1,1.117531082E1,2.291050286E1
1.522004408E1,1.205817490E1,-1.564651291E1,1.235440887E1,2.329902072E1
1.523008208E1,1.263956589E1,-1.448777252E1,1.215846634E1,2.274824130E1
1.524012008E1,1.418225784E1,-1.352198090E1,9.887538757E0,2.194866346E1
1.525015908E1,1.708008179E1,-1.164278870E1,6.184239807E0,2.157611050E1
1.526019708E1,1.943947540E1,-9.252409515E0,1.855242004E0,2.160884561E1
1.527023508E1,2.023312500E1,-7.479047241E0,-2.318378906E0,2.169539987E1
1.528027308E1,1.924637695E1,-6.830895081E0,-4.784799957E0,2.097566361E1
1.529031108E1,1.717273911E1,-6.990612946E0,-5.116360474E0,1.923405267E1
1.530035008E1,1.497560806E1,-7.592660980E0,-4.187541962E0,1.730470587E1
1.531038808E1,1.309222458E1,-8.537196808E0,-2.721640320E0,1.586497399E1
1.532042608E1,1.164653091E1,-9.353449402E0,-1.413959656E0,1.500426539E1
1.533046408E1,1.081950073E1,-9.831405487E0,-4.550537109E-1,1.462618213E1
1.534050308E1,1.079584991E1,-1.012299911E1,2.409988403E-2,1.479952929E1
1.535054108E1,1.168410278E1,-1.019185593E1,5.613327026E-2,1.550468755E1
1.536057908E1,1.345462097E1,-9.694889374E0,-2.371069336E-1,1.658535273E1
1.537061708E1,1.511227386E1,-8.959319000E0,-7.435038757E-1,1.758416948E1
1.538065608E1,1.647279465E1,-8.181386719E0,-1.003962250E0,1.841998893E1
1.539069408E1,1.755429565E1,-6.966363373E0,-1.036295013E0,1.891447652E1
1.540073208E1,1.819675964E1,-5.350323944E0,-1.008452911E0,1.899381492E1
1.541077008E1,1.809571976E1,-3.761827240E0,-9.707313538E-1,1.850807221E1
1.542080908E1,1.734832397E1,-2.383343811E0,-1.169817352E0,1.755030328E1
1.543084708E1,1.632879410E1,-1.459315338E0,-6.882687378E-1,1.640831593E1
1.544088508E1,1.510029877E1,-5.553451538E-1,6.631210327E-2,1.511065281E1
1.545092308E1,1.425485687E1,6.292913818E-1,2.796185303E-1,1.427147990E1
1.546096208E1,1.350880829E1,1.462907867E0,8.952882385E-1,1.361725163E1
1.547100008E1,1.323383011E1,2.169738007E0,1.543590088E0,1.349906266E1
1.548103808E1,1.269689667E1,2.658022614E0,1.999392242E0,1.312531289E1
1.549107608E1,1.180310532E1,2.737806702E0,2.935545502E0,1.246700878E1
1.550111508E1,1.123638382E1,3.293750610E0,3.012485504E0,1.209049971E1
1.551115308E1,1.050081345E1,3.076252899E0,2.705174561E0,1.127157417E1
1.552119108E1,1.036594391E1,1.939666443E0,1.973496094E0,1.072892287E1
1.553122908E1,1.062086380E1,4.038601685E-1,9.445358276E-1,1.067042637E1
1.554126808E1,1.186298080E1,-2.468965759E0,-3.103047180E-1,1.212115483E1
1.555130608E1,1.344429245E1,-7.028783569E0,-2.327958984E0,1.534836118E1
1.556134408E1,1.560804291E1,-1.339444611E1,-4.685855713E0,2.109453564E1
1.557138208E1,1.792118271E1,-2.128798141E1,-6.765630798E0,2.863774961E1
1.558142008E1,1.912228500E1,-2.817126755E1,-7.968080292E0,3.496816270E1
1.559145908E1,2.081212097E1,-3.371813278E1,-8.229586487E0,4.046953115E1
1.560149708E1,2.330773132E1,-3.865486679E1,-6.339616699E0,4.558113432E1
1.561153508E1,2.408775925E1,-4.123924255E1,-2.884651337E0,4.784575723E1
1.562157308E1,2.346041382E1,-4.038871124E1,-5.688171387E-3,4.670801906E1
1.563161208E1,2.182087326E1,-3.755016403E1,3.998634796E0,4.361369520E1
1.564165008E1,2.130624344E1,-3.644875443E1,8.131091309E0,4.299514338E1
1.565168808E1,1.986054977E1,-3.485277328E1,1.087009552E1,4.156099397E1
1.566172608E1,1.724458969E1,-3.059682358E1,1.185744232E1,3.706940012E1
1.567176508E1,1.532962189E1,-2.508513519E1,1.059197388E1,3.124821956E1
1.568180308E1,1.460348190E1,-2.027174469E1,7.520660706E0,2.609148623E1
1.569184108E1,1.439466614E1,-1.554517365E1,3.954925690E0,2.155226842E1
1.570187908E1,1.428150146E1,-9.842931519E0,-2.860551453E-1,1.734723069E1
1.571191808E1,1.387434814E1,-3.489393768E0,-4.098177795E0,1.488181664E1
1.572195608E1,1.263747025E1,2.247426453E0,-6.276897125E0,1.428831751E1
1.573199408E1,1.144654678E1,5.797294464E0,-7.248077545E0,1.473657642E1
1.574203208E1,9.595645752E0,7.311695251E0,-7.016209717E0,1.395580537E1
1.575207108E1,7.077432404E0,7.188202057E0,-6.195017395E0,1.183801245E1
1.576210908E1,4.814288635E0,5.852230225E0,-5.184468842E0,9.181758592E0
1.577214708E1,2.587818604E0,4.323159943E0,-4.212090912E0,6.567208453E0
1.578218508E1,6.689588928E-1,3.331621857E0,-3.590134277E0,4.943306012E0
1.579222308E1,-8.738827515E-1,2.813848572E0,-3.232827301E0,4.374081299E0
1.580226208E1,-1.697021027E0,2.377505951E0,-3.024011536E0,4.204409671E0
1.581230008E1,-1.954036560E0,1.886227570E0,-2.716999969E0,3.841640555E0
1.582233808E1,-1.974543915E0,1.399589539E0,-2.369422760E0,3.387010299E0
1.583237608E1,-1.564247131E0,9.196875000E-1,-2.066602478E0,2.750189082E0
1.584241508E1,-8.343649292E-1,5.794450378E-1,-1.802102509E0,2.068693993E0
1.585245283E1,-1.312770081E-1,4.653822327E-1,-1.538500671E0,1.612699163E0
1.586249083E1,5.403762817E-1,3.679348755E-1,-1.236279144E0,1.398488012E0
1.587252883E1,1.149908752E0,1.501377869E-1,-7.502398682E-1,1.381192005E0
1.588256783E1,1.518442383E0,-5.433700562E-2,-3.841012573E-1,1.567212033E0
1.589260583E1,1.612297211E0,3.098556519E-2,-3.742218018E-2,1.613029082E0
1.590264383E1,1.493144989E0,2.568658447E-1,2.836601257E-1,1.541403609E0
1.591268183E1,1.340761871E0,4.029620361E-1,5.478607178E-1,1.503386898E0
1.592272083E1,1.080453186E0,4.119433594E-1,7.023394775E-1,1.352906930E0
1.593275883E1,7.502398682E-1,3.755690002E-1,7.776329041E-1,1.143951427E0
1.594279683E1,4.108955383E-1,2.983296204E-1,8.652008057E-1,1.003198953E0
1.595283483E1,1.032852173E-1,2.160008240E-1,9.389973450E-1,9.690408691E-1
1.596287383E1,-2.556683350E-1,3.159928894E-1,8.936416626E-1,9.817398967E-1
1.597291183E1,-6.683601379E-1,3.876937866E-1,7.458988953E-1,1.073953867E0
1.598294983E1,-9.286688232E-1,3.418890381E-1,6.941065979E-1,1.208758813E0
1.599298783E1,-1.203497314E0,3.257226562E-1,7.241940308E-1,1.441859226E0
1.600302683E1,-1.342857513E0,2.893482971E-1,7.914042664E-1,1.585342061E0
1.601306483E1,-1.375190277E0,2.484832764E-1,9.828561401E-1,1.708478396E0
1.602310283E1,-1.435514832E0,2.016307068E-1,1.243314514E0,1.909761439E0
1.603314083E1,-1.376088409E0,2.483335876E-1,1.337768097E0,1.935177605E0
1.604317983E1,-1.181044006E0,4.957690430E-1,1.424886932E0,1.915973554E0
1.605321783E1,-7.779322815E-1,9.470805359E-1,1.607207794E0,2.021201887E0
1.606325583E1,-1.227447510E-1,1.534159698E0,1.543290710E0,2.179554650E0
1.607329383E1,7.146139526E-1,1.732946320E0,1.492246857E0,2.395950068E0
1.608333283E1,2.133363647E0,1.167422333E0,1.317859497E0,2.766020428E0
1.609337083E1,4.052971802E0,-2.715353394E-1,1.304836578E0,4.266486888E0
1.610340883E1,6.375092926E0,-2.971021729E0,9.303153992E-1,7.094664662E0
1.611344683E1,1.012704071E1,-7.904761963E0,-3.291654968E-1,1.285109198E1
1.612348483E1,1.533441193E1,-1.636771317E1,-1.931882629E0,2.251173902E1
1.613352383E1,2.033835617E1,-2.627770523E1,-3.758085022E0,3.344083921E1
1.614356183E1,2.363569931E1,-3.361664383E1,-6.207591248E0,4.156030815E1
1.615359983E1,2.529245407E1,-3.525304092E1,-9.324110413E0,4.437819467E1
1.616363783E1,2.865700745E1,-3.539210175E1,-1.087518494E1,4.681980979E1
1.617367683E1,3.188938568E1,-3.566019424E1,-8.697962494E0,4.862341950E1
1.618371483E1,3.246523819E1,-3.433829315E1,-4.578977966E0,4.747712193E1
1.619375283E1,3.203952347E1,-3.276072372E1,-4.667294312E-1,4.582590882E1
1.620379083E1,3.113315826E1,-3.152010361E1,3.517984314E0,4.444284744E1
1.621382983E1,2.931818253E1,-2.910412766E1,5.802383881E0,4.171658821E1
1.622386783E1,2.672243042E1,-2.505804153E1,6.026617584E0,3.712564952E1
1.623390583E1,2.404345139E1,-2.098905304E1,3.745810547E0,3.213501204E1
1.624394383E1,2.170740921E1,-1.686797287E1,2.528242493E-1,2.749189050E1
1.625398283E1,1.940983704E1,-1.205622894E1,-3.169808350E0,2.306820572E1
1.626402083E1,1.714295105E1,-6.703959045E0,-6.249803467E0,1.943923561E1
1.627405883E1,1.465931580E1,-1.439706116E0,-8.214467926E0,1.686552035E1
1.628409683E1,1.189366699E1,3.024310913E0,-8.694819031E0,1.504013461E1
1.629413583E1,9.533524933E0,5.875581665E0,-7.988437958E0,1.375593321E1
1.630417383E1,7.003935242E0,7.202721863E0,-6.718029785E0,1.208578650E1
1.631421183E1,4.670737152E0,7.072492676E0,-5.325924683E0,1.001006553E1
1.632424983E1,2.450254669E0,6.360273743E0,-4.067192230E0,7.937183547E0
1.633428883E1,3.844006348E-1,5.490133209E0,-2.941832428E0,6.240489126E0
1.634432683E1,-1.183888092E0,4.509971466E0,-1.905387726E0,5.037056286E0
1.635436483E1,-2.243684235E0,3.609294434E0,-9.708810425E-1,4.359327385E0
1.636440283E1,-3.025508423E0,2.931354218E0,-4.900808716E-1,4.241075103E0
1.637444183E1,-3.348985748E0,2.469265137E0,-1.389111328E-1,4.163204554E0
1.638447983E1,-2.985242157E0,1.922901306E0,2.297721863E-1,3.558372581E0
1.639451783E1,-2.426304474E0,1.331181793E0,6.539900208E-1,2.843712593E0
1.640455583E1,-1.689087524E0,7.897576904E-1,1.144370270E0,2.187765341E0
1.641459383E1,-8.382568359E-1,3.817062378E-1,1.618584137E0,1.862307382E0
1.642463283E1,1.224453735E-1,2.636018372E-1,2.059567108E0,2.079974873E0
1.643467083E1,1.024619293E0,3.867956543E-1,2.134411469E0,2.398993099E0
1.644470883E1,1.775008850E0,6.598278809E-1,1.657802582E0,2.516811207E0
1.645474683E1,2.208657074E0,1.071022797E0,8.699908447E-1,2.604254206E0
1.646478583E1,2.210752716E0,1.366208954E0,2.029779053E-1,2.606751716E0
1.647482383E1,1.785786438E0,1.452878723E0,-2.279759216E-1,2.313409347E0
1.648486183E1,1.184636536E0,1.338666229E0,-4.580474854E-1,1.845317993E0
1.649489983E1,6.912625122E-1,9.434880066E-1,-2.168989563E-1,1.189562372E0
1.650493883E1,4.255650330E-1,3.706292725E-1,3.710783386E-1,6.754041666E-1
1.651497683E1,1.100212097E-1,-1.359173584E-1,9.385482788E-1,9.546994640E-1
1.652501483E1,-1.950444031E-1,-4.602928162E-1,1.290616150E0,1.384052688E0
1.653505283E1,-4.608915710E-1,-7.806266785E-1,1.663191376E0,1.894202894E0
1.654509183E1,-8.054750061E-1,-1.062041473E0,1.869312744E0,2.295877221E0
1.655512983E1,-1.096320190E0,-1.217268677E0,1.790726166E0,2.427006632E0
1.656516783E1,-1.330732727E0,-1.191372528E0,1.525178375E0,2.348699037E0
1.657520583E1,-1.589993591E0,-1.130598907E0,1.281335449E0,2.334128112E0
1.658524483E1,-1.807790680E0,-1.060544586E0,9.641450500E-1,2.307040884E0
1.659528283E1,-1.881287842E0,-9.916877747E-1,6.774911499E-1,2.231968379E0
1.660532083E1,-1.570833435E0,-9.367520142E-1,5.201683044E-1,1.901472346E0
1.661535883E1,-9.731263733E-1,-8.333171082E-1,3.784130859E-1,1.335885027E0
1.662539783E1,-4.361929321E-1,-5.450166321E-1,5.358856201E-2,7.001279435E-1
1.663543583E1,5.598358154E-2,-2.317181396E-1,-6.201603699E-1,6.643992339E-1
1.664547383E1,5.713618469E-1,-4.616400146E-1,-1.097218323E0,1.320399148E0
1.665551183E1,1.253343658E0,-1.673070831E0,-1.473535767E0,2.557605127E0
1.666554983E1,2.324516144E0,-3.749552765E0,-1.817071381E0,4.771191637E0
1.667558883E1,3.927832031E0,-6.613846436E0,-2.477797394E0,8.081479386E0
1.668562683E1,6.696923676E0,-1.120300323E1,-3.748355255E0,1.357962574E1
1.669566483E1,1.101095261E1,-1.813284256E1,-5.320535889E0,2.187119473E1
