"Time (s)","Acceleration x (m/s^2)","Acceleration y (m/s^2)","Acceleration z (m/s^2)","Absolute acceleration (m/s^2)"
1.511408342E-2,-5.166955261E0,6.642436981E0,5.927523651E0,1.029344123E1
2.515308326E-2,-4.268224182E0,6.418802032E0,8.002808075E0,1.111142179E1
3.519108333E-2,-3.155438232E0,6.167025604E0,1.034034714E1,1.244635586E1
4.522908339E-2,-2.239792328E0,5.803880768E0,1.194875244E1,1.347124295E1
5.526708323E-2,-1.680704956E0,5.521867218E0,1.256621841E1,1.382843563E1
6.530508329E-2,-1.588796082E0,5.320086823E0,1.238734039E1,1.357474857E1
7.534408337E-2,-1.949994965E0,5.186414795E0,1.146196472E1,1.273098637E1
8.538208343E-2,-2.451302490E0,5.162015533E0,1.022044647E1,1.170951811E1
9.542008326E-2,-2.857407990E0,5.293292542E0,8.963959351E0,1.079519771E1
1.054580833E-1,-2.954555969E0,5.535788269E0,7.923772430E0,1.010744885E1
1.154970834E-1,-2.845732269E0,5.803731079E0,7.210056610E0,9.683305371E0
1.255350832E-1,-2.564916229E0,5.994284821E0,6.956932983E0,9.534629637E0
1.355730833E-1,-2.208806763E0,6.013894043E0,7.199877777E0,9.637633988E0
1.456110834E-1,-1.793570251E0,5.841302948E0,7.872279510E0,9.965465321E0
1.556490834E-1,-1.235979767E0,5.577102356E0,8.691076813E0,1.040031407E1
1.656880833E-1,-7.975415039E-1,5.228926392E0,9.270821228E0,1.067360623E1
1.757260833E-1,-5.810916138E-1,4.935386810E0,9.570198669E0,1.078352507E1
1.857640834E-1,-6.542893982E-1,4.778962097E0,9.619895325E0,1.076145712E1
1.958020832E-1,-8.924441528E-1,4.672234039E0,9.437275085E0,1.056827273E1
2.058400833E-1,-1.203497314E0,4.599185944E0,9.033714294E0,1.020827660E1
2.158790834E-1,-1.553619232E0,4.629572754E0,8.562943268E0,9.857518654E0
2.259170834E-1,-1.764680328E0,4.719086609E0,8.124505005E0,9.559887900E0
2.359550833E-1,-1.830094299E0,4.743485870E0,7.702981567E0,9.229616914E0
2.459930833E-1,-1.899699554E0,4.745282135E0,7.299869843E0,8.911490372E0
2.560320834E-1,-2.019899597E0,4.778962097E0,6.930288391E0,8.657214927E0
2.660700832E-1,-2.147584076E0,4.921166382E0,6.721622314E0,8.602918252E0
2.761080833E-1,-2.214045868E0,5.088218994E0,6.607559509E0,8.628546477E0
2.861460834E-1,-2.157613220E0,5.118007050E0,6.528823242E0,8.571745674E0
2.961840834E-1,-2.096989288E0,5.117258606E0,6.628216553E0,8.632320336E0
3.062230833E-1,-2.203867035E0,5.216502228E0,6.890920258E0,8.919288503E0
3.162610834E-1,-2.304158478E0,5.325625305E0,7.176376648E0,9.228857620E0
3.262990834E-1,-2.233804779E0,5.338049469E0,7.418872375E0,9.408736538E0
3.363370833E-1,-2.146236877E0,5.312752075E0,7.524702301E0,9.457949676E0
3.463750833E-1,-2.093995514E0,5.243446198E0,7.509883118E0,9.395578198E0
3.564140834E-1,-2.112556915E0,5.198240204E0,7.485184479E0,9.354816119E0
3.664520832E-1,-2.086960144E0,5.252577209E0,7.573201447E0,9.449780428E0
3.764900833E-1,-1.872456207E0,5.272934875E0,7.653434601E0,9.480769781E0
3.865280834E-1,-1.555565186E0,5.184319153E0,7.620652771E0,9.347261459E0
3.965670834E-1,-1.452729034E0,5.109025726E0,7.451654205E0,9.150940712E0
4.066050833E-1,-1.497935028E0,5.110971680E0,7.249424744E0,8.995554456E0
4.166430833E-1,-1.545685730E0,5.145250397E0,7.123386841E0,8.922185052E0
4.266810834E-1,-1.449585571E0,5.144352264E0,7.085216217E0,8.875018163E0
4.367190832E-1,-1.402882690E0,5.101391602E0,7.078330536E0,8.837139769E0
4.467580833E-1,-1.504221954E0,5.078040161E0,7.076234894E0,8.838680662E0
4.567960834E-1,-1.600322113E0,5.060077515E0,7.082821198E0,8.850523794E0
4.668340834E-1,-1.622476044E0,5.084626465E0,7.106621704E0,8.887627740E0
4.768720833E-1,-1.629062347E0,5.199737091E0,7.202572174E0,9.031509058E0
4.869110833E-1,-1.457519073E0,5.385500793E0,7.274273071E0,9.167498533E0
4.969490834E-1,-1.230740662E0,5.515580292E0,7.256011047E0,9.197067187E0
5.069870832E-1,-1.169967041E0,5.622308350E0,7.195237427E0,9.206009759E0
5.170250833E-1,-1.283431091E0,5.757177887E0,7.177873535E0,9.290541484E0
5.270630834E-1,-1.405128021E0,5.818849640E0,7.177424469E0,9.346058950E0
5.371020834E-1,-1.449735260E0,5.843099213E0,7.196584625E0,9.382663321E0
5.471400833E-1,-1.469643860E0,5.874533844E0,7.229516144E0,9.430583473E0
5.571780833E-1,-1.542991333E0,5.930367737E0,7.312144318E0,9.540311225E0
5.672155833E-1,-1.555415497E0,5.998775482E0,7.478598175E0,9.712572024E0
5.772535834E-1,-1.518592072E0,6.029012604E0,7.618257751E0,9.833258159E0
5.872925834E-1,-1.388961639E0,6.101162567E0,7.777825928E0,9.982383246E0
5.973305833E-1,-1.225501556E0,6.134094086E0,7.963739319E0,1.012670273E1
6.073685833E-1,-1.127904510E0,6.140830078E0,8.133037262E0,1.025320719E1
6.174065834E-1,-1.073567505E0,6.121220856E0,8.351433105E0,1.041001090E1
6.274455832E-1,-9.372010803E-1,6.123466187E0,8.469387817E0,1.049312699E1
6.374835833E-1,-8.454418945E-1,6.097719727E0,8.502618713E0,1.049721310E1
6.475215834E-1,-8.354127502E-1,6.077212372E0,8.514893188E0,1.049446667E1
6.575595834E-1,-8.758287048E-1,6.079757080E0,8.492589569E0,1.048115450E1
6.675975833E-1,-9.488768005E-1,6.083349609E0,8.415350189E0,1.042715822E1
6.776365833E-1,-1.052910461E0,6.019133148E0,8.250542908E0,1.026693930E1
6.876745834E-1,-1.186582489E0,5.829477539E0,7.777825928E0,9.792107155E0
6.977125832E-1,-1.564097443E0,5.683830414E0,8.162226562E0,1.006847910E1
7.077505833E-1,-1.895657959E0,5.436694336E0,8.220605164E0,1.003640940E1
7.177895834E-1,-2.008822632E0,5.091212769E0,8.029602356E0,9.717526939E0
7.278275834E-1,-2.077529755E0,4.575834503E0,7.830216980E0,9.304122164E0
7.378655833E-1,-2.139650574E0,4.170178070E0,7.882458344E0,9.170694589E0
7.479035833E-1,-2.268382874E0,4.058360596E0,8.331075439E0,9.540580148E0
7.579415834E-1,-2.138003998E0,3.946842499E0,8.910969543E0,9.977675331E0
7.679805832E-1,-1.858385468E0,3.785627747E0,9.559121704E0,1.044803243E1
7.780185833E-1,-1.687141571E0,3.604654083E0,1.018826340E1,1.093803862E1
7.880565834E-1,-1.685794373E0,3.402125244E0,1.066606979E1,1.132172265E1
7.980945834E-1,-1.735191650E0,3.224594421E0,1.102202957E1,1.161438914E1
8.081325833E-1,-1.693727875E0,2.987936554E0,1.122845032E1,1.174200049E1
8.181715833E-1,-1.601669312E0,2.633773041E0,1.113354767E1,1.155240186E1
8.282095834E-1,-1.424437866E0,2.282752991E0,1.073612411E1,1.106816812E1
8.382475832E-1,-1.518592072E0,2.017205200E0,9.861343231E0,1.017945622E1
8.482855833E-1,-2.008672943E0,1.871258698E0,9.047785034E0,9.455093343E0
8.583245834E-1,-2.267335052E0,1.744023285E0,8.799301758E0,9.252574608E0
8.683625835E-1,-2.379900970E0,1.708247681E0,8.764723663E0,9.241342958E0
8.784005833E-1,-2.284249878E0,1.719773712E0,8.738528137E0,9.194416411E0
8.884385834E-1,-2.252066803E0,1.847607880E0,8.836873627E0,9.304611505E0
8.984765834E-1,-2.163451080E0,2.011966095E0,9.124575348E0,9.590954250E0
9.085155833E-1,-1.777254181E0,2.013612671E0,9.759255524E0,1.012207176E1
9.185535833E-1,-1.446741486E0,1.903142395E0,1.032058823E1,1.059384506E1
9.285915834E-1,-8.946894836E-1,1.627864838E0,1.052955368E1,1.069214262E1
9.386295835E-1,-2.832110596E-1,1.335373077E0,1.051488419E1,1.060312309E1
9.486685833E-1,1.911524963E-1,1.119521942E0,1.030681686E1,1.036920163E1
9.587065834E-1,4.031117249E-1,9.714797974E-1,9.956096191E0,1.001149956E1
9.687445834E-1,7.038363647E-1,8.542735291E-1,9.866432648E0,9.928326248E0
9.787825833E-1,1.169667664E0,7.812254333E-1,1.002210892E1,1.012033116E1
9.888205833E-1,1.393901367E0,7.861651611E-1,1.014859589E1,1.027399704E1
9.988595834E-1,1.462458801E0,8.819659424E-1,1.038016434E1,1.051971774E1
1.008897583E0,1.558259583E0,1.089135132E0,1.061307999E1,1.078201535E1
1.018935583E0,1.744172974E0,1.315763855E0,1.083566711E1,1.105373492E1
1.028973583E0,1.930685120E0,1.412163391E0,1.097353043E1,1.123121189E1
1.039012583E0,2.041754150E0,1.382375336E0,1.099718124E1,1.127021370E1
1.049050583E0,2.133213959E0,1.349892883E0,1.084449875E1,1.113444950E1
1.059088583E0,2.108066254E0,1.399888916E0,1.059466827E1,1.089268691E1
1.069126583E0,1.588945770E0,1.731299744E0,1.033735336E1,1.060108589E1
1.079164583E0,8.684939575E-1,2.202519836E0,1.003258713E1,1.030816084E1
1.089203583E0,3.209326172E-1,2.648891602E0,9.854457550E0,1.020930742E1
1.099241583E0,-2.784210205E-2,3.005749512E0,9.658365326E0,1.011530158E1
1.109279583E0,-3.059637451E-1,3.340303802E0,9.366771698E0,9.949254010E0
1.119317583E0,-5.511538696E-1,3.617078247E0,8.966653748E0,9.684415577E0
1.129356583E0,-7.788304138E-1,3.844156036E0,8.481213226E0,9.344254397E0
1.139394583E0,-8.990304565E-1,4.054768066E0,8.021668854E0,9.033082034E0
1.149432583E0,-1.039887543E0,4.233795776E0,7.573949890E0,8.739056569E0
1.159470583E0,-1.341360626E0,4.484524384E0,7.211852875E0,8.597733955E0
1.169508583E0,-1.530866547E0,4.824766846E0,6.970404968E0,8.614433987E0
1.179547583E0,-1.673519897E0,5.061574402E0,6.821165314E0,8.657280203E0
1.189585583E0,-1.747017059E0,5.209167480E0,6.786287842E0,8.731620532E0
1.199623583E0,-1.686542816E0,5.317542114E0,6.814279633E0,8.806536647E0
1.209661583E0,-1.603914642E0,5.398823090E0,6.957681427E0,8.951489472E0
1.219700583E0,-1.475332031E0,5.490881653E0,7.129224701E0,9.118784500E0
1.229738583E0,-1.272054749E0,5.566474457E0,7.351512451E0,9.308517416E0
1.239776583E0,-1.061143341E0,5.569168854E0,7.583080902E0,9.468092885E0
1.249814583E0,-8.958869934E-1,5.521717529E0,7.714357910E0,9.529076343E0
1.259852583E0,-8.122109985E-1,5.431155853E0,7.750732269E0,9.498999490E0
1.269891583E0,-9.032217407E-1,5.369334412E0,7.740703125E0,9.463828317E0
1.279929583E0,-1.010997620E0,5.254523163E0,7.650590515E0,9.336148300E0
1.289967583E0,-1.017284546E0,4.994663544E0,7.599396973E0,9.150539116E0
1.300005583E0,-1.458716583E0,5.383105774E0,7.792794800E0,9.582970971E0
1.310044583E0,-1.890119476E0,5.715414734E0,8.127349091E0,1.011396660E1
1.320082583E0,-2.086660767E0,6.069129181E0,8.443192291E0,1.060546926E1
1.330120583E0,-1.875000916E0,6.145171051E0,8.871152344E0,1.095336020E1
1.340158583E0,-1.113983459E0,5.849835205E0,9.368268585E0,1.110072013E1
1.350196583E0,-3.553610229E-1,5.609584808E0,9.889634399E0,1.137535018E1
1.360235583E0,1.505868530E-1,5.558840332E0,1.038585251E1,1.178088768E1
1.370273583E0,6.523434448E-1,5.489833832E0,1.089105194E1,1.221387898E1
1.380311583E0,1.279539185E0,5.377267914E0,1.137349869E1,1.264550130E1
1.390349583E0,1.933678894E0,5.230572968E0,1.171972870E1,1.297883078E1
1.400388583E0,2.388582916E0,5.183271332E0,1.195638657E1,1.324865313E1
1.410426583E0,2.495909729E0,5.255870361E0,1.212568451E1,1.344938524E1
1.420464583E0,2.214644623E0,5.319937134E0,1.206835373E1,1.337353894E1
1.430502583E0,1.706900482E0,5.195246429E0,1.171194489E1,1.292570105E1
1.440541583E0,1.191073151E0,4.861739960E0,1.112202164E1,1.219649687E1
1.450579583E0,7.373666382E-1,4.456831970E0,1.051338730E1,1.144283065E1
1.460617583E0,3.555107117E-1,4.032913513E0,9.948462067E0,1.074070187E1
1.470655583E0,8.382568359E-3,3.671115875E0,9.445807343E0,1.013412248E1
1.480693583E0,-2.267784119E-1,3.410956879E0,9.114097137E0,9.734106118E0
1.490732583E0,-2.775228882E-1,3.222199402E0,8.989556122E0,9.553622727E0
1.500770583E0,-1.595681763E-1,3.124003601E0,9.121731262E0,9.643175915E0
1.510808583E0,4.206253052E-2,3.127296753E0,9.410480804E0,9.916597360E0
1.520846583E0,2.653981018E-1,3.216810608E0,9.670340424E0,1.019479232E1
1.530884583E0,4.439767456E-1,3.283721466E0,9.774374084E0,1.032077181E1
1.540923583E0,4.649331665E-1,3.316353607E0,9.623338165E0,1.018935727E1
1.550961583E0,3.228785706E-1,3.411855011E0,9.303752747E0,9.914878736E0
1.561000125E0,1.604663086E-1,3.611839142E0,8.854836273E0,9.564478911E0
1.571038125E0,-1.886077881E-2,3.801195374E0,8.362659760E0,9.186050307E0
1.581077125E0,-2.275268555E-1,3.926484833E0,7.770491180E0,8.709166711E0
1.591115125E0,-5.267546082E-1,4.029770050E0,7.165299683E0,8.237598959E0
1.601153125E0,-8.557704163E-1,4.159101105E0,6.690187683E0,7.923955845E0
1.611191125E0,-1.193019104E0,4.310137024E0,6.427933044E0,7.830638478E0
1.621229125E0,-1.395547943E0,4.473148041E0,6.365662537E0,7.904319514E0
1.631268125E0,-1.460662537E0,4.649181976E0,6.460116119E0,8.092065767E0
1.641306125E0,-1.452279968E0,4.785398712E0,6.523284760E0,8.219635150E0
1.651344125E0,-1.370549927E0,4.868026886E0,6.540349274E0,8.267542651E0
1.661382125E0,-1.327888641E0,4.894372101E0,6.524182892E0,8.263360631E0
1.671421125E0,-1.338516541E0,4.946014709E0,6.480773163E0,8.261665015E0
1.681459125E0,-1.340911560E0,5.034480743E0,6.441255341E0,8.284552524E0
1.691497125E0,-1.274749146E0,5.158572693E0,6.528823242E0,8.417920797E0
1.701535125E0,-1.167272644E0,5.266498260E0,6.706503754E0,8.606725391E0
1.711574125E0,-1.044378204E0,5.279670868E0,6.881040802E0,8.735809798E0
1.721612125E0,-8.521778870E-1,5.209466858E0,7.040908356E0,8.799951282E0
1.731650125E0,-6.355783081E-1,5.135820007E0,7.213798828E0,8.878034719E0
1.741688125E0,-4.067042542E-1,5.081333313E0,7.411238251E0,8.995099165E0
1.751726125E0,-2.460882568E-1,4.970563660E0,7.541018372E0,9.035154708E0
1.761765125E0,-2.341131592E-1,4.856500854E0,7.582482147E0,9.007466072E0
1.771803125E0,-3.016227722E-1,4.730462952E0,7.598349152E0,8.955622025E0
1.781841125E0,-2.369572449E-1,4.619393921E0,7.671247559E0,8.957845055E0
1.791879125E0,-1.508862305E-1,4.535568237E0,7.718698883E0,8.953907434E0
1.801918125E0,-1.372645569E-1,4.557123413E0,7.736362152E0,8.979839348E0
1.811956125E0,-9.879455566E-2,4.680616608E0,7.751031647E0,9.055187672E0
1.821994125E0,-1.347198486E-3,4.842879181E0,7.676935730E0,9.076828894E0
1.832032125E0,8.951385498E-2,5.010380859E0,7.587421875E0,9.092903815E0
1.842070125E0,1.784289551E-1,5.137466583E0,7.527247009E0,9.115088992E0
1.852109125E0,2.526745605E-1,5.218597870E0,7.490573273E0,9.132704754E0
1.862147125E0,2.767744446E-1,5.240452423E0,7.482340393E0,9.139166453E0
1.872185125E0,2.667453003E-1,5.239404602E0,7.553292847E0,9.196452929E0
1.882223125E0,2.122586060E-1,5.265899506E0,7.657027130E0,9.295419076E0
1.892262125E0,1.350192261E-1,5.268444214E0,7.742948456E0,9.366321872E0
1.902300125E0,7.694000244E-2,5.303022308E0,7.874973907E0,9.494376199E0
1.912338125E0,7.229965210E-2,5.396428070E0,8.095914459E0,9.729876365E0
1.922376125E0,1.938468933E-1,5.562432861E0,8.318202209E0,1.000853256E1
1.932414125E0,2.959346008E-1,5.643264771E0,8.398884430E0,1.012300717E1
1.942453125E0,2.965333557E-1,5.647456055E0,8.356073456E0,1.008987887E1
1.952491125E0,2.230361938E-1,5.622757416E0,8.201145630E0,9.946051264E0
1.962529125E0,1.896556091E-1,5.632038116E0,8.094118195E0,9.862584445E0
1.972567125E0,1.935475159E-1,5.683680725E0,8.102351074E0,9.898978743E0
1.982606125E0,9.415420532E-2,5.846991119E0,8.101752319E0,9.991724616E0
1.992644125E0,-1.561253357E-1,6.116879883E0,7.970475311E0,1.004833674E1
2.002682125E0,-4.836442566E-1,6.416107635E0,7.707771606E0,1.004042290E1
2.012720125E0,-7.310797119E-1,6.689289551E0,7.414381714E0,1.001269836E1
2.022758125E0,-6.688092041E-1,6.902745667E0,7.165748749E0,9.972119064E0
2.032797125E0,-3.029699707E-1,6.875202942E0,6.971901855E0,9.796306538E0
2.042835125E0,9.669891357E-2,6.613547058E0,6.953789520E0,9.597059136E0
2.052873125E0,3.098556519E-1,6.298751678E0,7.293582916E0,9.641920711E0
2.062911125E0,3.535647583E-1,5.931864624E0,8.083190918E0,1.003244743E1
2.072950125E0,2.643502808E-1,5.519472198E0,9.070238342E0,1.062090759E1
2.082988125E0,-1.362167358E-2,5.145250397E0,1.017060013E1,1.139802150E1
2.093026125E0,-3.860472107E-1,4.873116302E0,1.110720245E1,1.213533029E1
2.103064125E0,-7.970924377E-1,4.593198395E0,1.163560364E1,1.253475568E1
2.113103125E0,-1.285826111E0,4.331392822E0,1.161030624E1,1.245847196E1
2.123141125E0,-1.760489044E0,4.208049316E0,1.104403381E1,1.194896161E1
2.133179125E0,-2.121837616E0,4.289030914E0,1.017778519E1,1.124656803E1
2.143217125E0,-2.260449371E0,4.441414032E0,9.259295197E0,1.051524310E1
2.153255125E0,-2.191592560E0,4.564458160E0,8.382268982E0,9.792843792E0
2.163294125E0,-2.061363373E0,4.625830536E0,7.643555145E0,9.169049152E0
2.173332125E0,-1.890718231E0,4.591551819E0,7.109615479E0,8.672012211E0
2.183370125E0,-1.738784180E0,4.572691040E0,6.843468933E0,8.412249450E0
2.193408125E0,-1.601519623E0,4.516557770E0,6.861431580E0,8.369193660E0
2.203447125E0,-1.440454559E0,4.466262360E0,7.130571899E0,8.536244163E0
2.213485125E0,-1.215622101E0,4.415068817E0,7.664511566E0,8.928342920E0
2.223523125E0,-8.312214661E-1,4.332440643E0,8.370144196E0,9.461515994E0
2.233561125E0,-3.667373657E-1,4.269272003E0,9.104517059E0,1.006247537E1
2.243599125E0,1.246907043E-1,4.269421692E0,9.832153931E0,1.071983024E1
2.253638125E0,5.638774109E-1,4.357588348E0,1.054317535E1,1.142213117E1
2.263676125E0,9.858499146E-1,4.445455627E0,1.120150635E1,1.209163844E1
2.273714125E0,1.284179535E0,4.495751038E0,1.178005325E1,1.267401077E1
2.283752125E0,1.401834869E0,4.460574188E0,1.205592957E1,1.293086620E1
2.293791125E0,1.369801483E0,4.241878967E0,1.193932205E1,1.274430478E1
2.303829125E0,1.082997894E0,3.902834015E0,1.125614273E1,1.196268143E1
2.313867125E0,5.513035583E-1,3.651806030E0,1.019020935E1,1.083881864E1
2.323905125E0,-7.185058594E-2,3.575464783E0,9.087153168E0,9.765524236E0
2.333943125E0,-6.271957397E-1,3.577560425E0,8.012088776E0,8.796924442E0
2.343982125E0,-9.937834167E-1,3.606300659E0,7.092700653E0,8.018691444E0
2.354020125E0,-1.173260193E0,3.702400818E0,6.397546234E0,7.484177250E0
2.364058125E0,-1.316661987E0,3.860322418E0,5.983656921E0,7.241535619E0
2.374096125E0,-1.372046814E0,4.115391998E0,5.821993103E0,7.260479836E0
2.384135125E0,-1.246607666E0,4.370461578E0,5.999972992E0,7.526927726E0
2.394173125E0,-1.008452911E0,4.583618317E0,6.427783356E0,7.958827364E0
2.404211125E0,-7.411088562E-1,4.704417114E0,6.993906097E0,8.461412720E0
2.414249125E0,-5.116360474E-1,4.799319763E0,7.473957825E0,8.896925716E0
2.424288125E0,-4.911286926E-1,4.868775330E0,7.772586823E0,9.184731162E0
2.434326125E0,-5.260061646E-1,4.855602722E0,7.865393829E0,9.258400530E0
2.444364125E0,-6.991960144E-1,4.787045288E0,7.768545227E0,9.151774287E0
2.454402125E0,-9.903405762E-1,4.733756104E0,7.543413391E0,8.960597463E0
2.464440125E0,-1.304237823E0,4.676125946E0,7.332651672E0,8.794030402E0
2.474479125E0,-1.569486237E0,4.630321198E0,7.245532837E0,8.740761267E0
2.484517125E0,-1.768871613E0,4.603227539E0,7.248227234E0,8.766721656E0
2.494555125E0,-1.895957336E0,4.576732635E0,7.381749573E0,8.889958526E0
2.504593125E0,-1.970352631E0,4.529131622E0,7.661218414E0,9.115349161E0
2.514632125E0,-1.976639557E0,4.499792633E0,8.047115936E0,9.429279536E0
2.524670125E0,-1.942809906E0,4.435725861E0,8.452173615E0,9.741119702E0
2.534708125E0,-1.908531189E0,4.446054382E0,8.916058960E0,1.014425937E1
2.544746125E0,-1.841470642E0,4.530628510E0,9.454339600E0,1.064434808E1
2.554784125E0,-1.667532349E0,4.644092560E0,9.941426697E0,1.109865868E1
2.564823458E0,-1.477427673E0,4.741839294E0,1.031804352E1,1.145119446E1
2.574861458E0,-1.356628876E0,4.838837585E0,1.050710037E1,1.164705754E1
2.584899458E0,-1.297501831E0,4.853656769E0,1.041953247E1,1.156754736E1
2.594937458E0,-1.302890625E0,4.799768829E0,1.009021729E1,1.124934619E1
2.604976458E0,-1.215622101E0,4.755910034E0,9.673932953E0,1.084810565E1
2.615014458E0,-1.111738129E0,4.747677155E0,9.303603058E0,1.050397210E1
2.625052458E0,-1.016236725E0,4.762346649E0,9.029073944E0,1.025850179E1
2.635090458E0,-8.818162537E-1,4.818330231E0,8.886570282E0,1.014716894E1
2.645129458E0,-7.089257812E-1,4.895270233E0,8.916657715E0,1.019671669E1
2.655167458E0,-5.975573730E-1,4.980892181E0,9.061406708E0,1.035738641E1
2.665205458E0,-5.520520020E-1,5.093458099E0,9.208101654E0,1.053741965E1
2.675243458E0,-4.260140991E-1,5.251080322E0,9.264683990E0,1.065784697E1
2.685281458E0,-2.957849121E-1,5.398523712E0,9.175170135E0,1.064966168E1
2.695320458E0,-2.032772827E-1,5.536985779E0,8.936416626E0,1.051470757E1
2.705358458E0,-1.386117554E-1,5.708079987E0,8.653654633E0,1.036759996E1
2.715396458E0,-1.425036621E-1,5.959257660E0,8.296048279E0,1.021555070E1
2.725434458E0,-7.095245361E-2,6.188431091E0,7.913743286E0,1.004634493E1
2.735473458E0,6.331832886E-2,6.396049347E0,7.554041290E0,9.898333005E0
2.745511458E0,2.215393066E-1,6.531966705E0,7.212301941E0,9.733086252E0
2.755549458E0,4.129911804E-1,6.470594330E0,7.050338745E0,9.578435630E0
2.765587458E0,5.396278381E-1,6.312822418E0,7.264243927E0,9.639095648E0
2.775626458E0,6.716532898E-1,5.986650696E0,7.971223755E0,9.991572091E0
2.785664458E0,7.725434875E-1,5.601351929E0,8.994795227E0,1.062442036E1
2.795702458E0,7.581733704E-1,5.289849701E0,1.020023849E1,1.151530295E1
2.805740458E0,6.304888916E-1,4.949906616E0,1.118010086E1,1.224311019E1
2.815778458E0,3.608995056E-1,4.532275085E0,1.169488037E1,1.254758912E1
2.825817458E0,-3.173400879E-2,4.155957642E0,1.163814835E1,1.235797264E1
2.835855458E0,-4.255650330E-1,3.889362030E0,1.106918152E1,1.174031610E1
2.845893458E0,-7.861651611E-1,3.769012299E0,1.017913239E1,1.088293368E1
2.855931458E0,-1.083297272E0,3.755540314E0,9.229058075E0,1.002263084E1
2.865970458E0,-1.289867706E0,3.844605103E0,8.363408203E0,9.294694393E0
2.876008458E0,-1.374741211E0,4.044289856E0,7.628885651E0,8.743345476E0
2.886046458E0,-1.352287903E0,4.309687958E0,7.104825439E0,8.419063926E0
2.896084458E0,-1.187031555E0,4.624932404E0,6.848857727E0,8.349005678E0
2.906122458E0,-9.002279663E-1,4.941673737E0,6.852450256E0,8.496271195E0
2.916161458E0,-5.548960876E-1,5.209466858E0,7.085515594E0,8.811979678E0
2.926199458E0,-1.477427673E-1,5.348677368E0,7.373067627E0,9.110011183E0
2.936237458E0,2.195933533E-1,5.401218109E0,7.685168610E0,9.395913732E0
2.946275458E0,5.532495117E-1,5.471571808E0,7.985294495E0,9.695829580E0
2.956314458E0,8.186476135E-1,5.504054260E0,8.258775787E0,9.958522718E0
2.966352458E0,9.852511597E-1,5.528004456E0,8.505313110E0,1.019165856E1
2.976390458E0,9.632469177E-1,5.442083130E0,8.710536346E0,1.031588856E1
2.986428458E0,7.077282715E-1,5.336702271E0,8.828491058E0,1.034038320E1
2.996466458E0,2.915936279E-1,5.194647675E0,8.864566040E0,1.027861481E1
3.006505458E0,-1.040336609E-1,5.028942261E0,8.766220551E0,1.010681483E1
3.016543458E0,-4.456233215E-1,4.885091400E0,8.483907623E0,9.799968709E0
3.026581458E0,-7.896080017E-1,4.875661011E0,8.039182434E0,9.435253324E0
3.036619458E0,-1.041085052E0,4.960085449E0,7.587122498E0,9.124183993E0
3.046658458E0,-1.120719452E0,5.045258331E0,7.145091705E0,8.818331996E0
3.056696458E0,-1.166823578E0,5.148992615E0,6.752607880E0,8.571541016E0
3.066734458E0,-1.123862915E0,5.250182190E0,6.451284485E0,8.393244449E0
3.076772458E0,-1.108444977E0,5.360951843E0,6.267317047E0,8.321521369E0
3.086811458E0,-1.060993652E0,5.458249512E0,6.217919769E0,8.341505950E0
3.096849458E0,-1.030906219E0,5.508395233E0,6.168372803E0,8.333907170E0
3.106887458E0,-1.031055908E0,5.528603210E0,6.195765839E0,8.367559027E0
3.116925458E0,-1.106199646E0,5.545368347E0,6.355633392E0,8.506989102E0
3.126963458E0,-1.064286804E0,5.523813171E0,6.605164490E0,8.676025374E0
3.137002458E0,-1.012644196E0,5.448519745E0,6.803352356E0,8.774817318E0
3.147040458E0,-1.075663147E0,5.346132660E0,6.965016174E0,8.845882428E0
3.157078458E0,-1.182840271E0,5.302573242E0,7.105124817E0,8.944226784E0
3.167116458E0,-1.202000427E0,5.229525146E0,7.258106689E0,9.026231273E0
3.177155458E0,-1.165326691E0,5.174888763E0,7.445966034E0,9.142202699E0
3.187193458E0,-1.157692566E0,5.120551758E0,7.595205688E0,9.232954664E0
3.197231458E0,-1.174457703E0,5.091362457E0,7.771089935E0,9.364355896E0
3.207269458E0,-1.218466187E0,5.145250397E0,7.968529358E0,9.563248487E0
3.217308458E0,-1.200054474E0,5.231321411E0,8.179440765E0,9.783154179E0
3.227346458E0,-1.147962799E0,5.279970245E0,8.339458008E0,9.936924285E0
3.237384458E0,-1.083297272E0,5.312452698E0,8.493936768E0,1.007683722E1
3.247422458E0,-9.264234924E-1,5.300178223E0,8.711733856E0,1.023935821E1
3.257460458E0,-7.587721252E-1,5.261558533E0,8.996890869E0,1.045006118E1
3.267499458E0,-6.261479187E-1,5.219196625E0,9.322164459E0,1.070209441E1
3.277537458E0,-5.725593567E-1,5.206173706E0,9.629325714E0,1.096156844E1
3.287575458E0,-5.486091614E-1,5.192252655E0,9.908046112E0,1.119954630E1
3.297613458E0,-5.080435181E-1,5.123695221E0,1.011057495E1,1.134610448E1
3.307652458E0,-5.325924683E-1,5.023254089E0,1.022134460E1,1.140143070E1
3.317690458E0,-6.444099426E-1,4.932542725E0,1.020682480E1,1.135449314E1
3.327728458E0,-7.828720093E-1,4.878056030E0,1.010653336E1,1.124945935E1
3.337766458E0,-9.485774231E-1,4.828658752E0,9.964778137E0,1.111361992E1
3.347805458E0,-1.108295288E0,4.828359375E0,9.848919067E0,1.102463512E1
3.357843458E0,-1.177900543E0,4.853956146E0,9.758507080E0,1.096251798E1
3.367881458E0,-1.181343384E0,4.868326263E0,9.602232056E0,1.083046782E1
3.377919458E0,-1.132395172E0,4.927004242E0,9.395062866E0,1.066887510E1
3.387957458E0,-9.809101868E-1,5.031486969E0,9.213789825E0,1.054381188E1
3.397996458E0,-8.187973022E-1,5.202431488E0,9.085955658E0,1.050191947E1
3.408034458E0,-7.065307617E-1,5.429359589E0,8.960217133E0,1.050060105E1
3.418072458E0,-6.668632507E-1,5.675447845E0,8.817563782E0,1.050737103E1
3.428110458E0,-6.768923950E-1,5.909710693E0,8.555309143E0,1.041998936E1
3.438149458E0,-8.442443848E-1,6.104904785E0,8.048313446E0,1.013696011E1
3.448187458E0,-1.097517700E0,6.262676697E0,7.300169220E0,9.680812732E0
3.458225458E0,-1.346150665E0,6.457272034E0,6.515051880E0,9.271158759E0
3.468263458E0,-1.591041412E0,6.663992157E0,5.799689484E0,8.976447090E0
3.478302458E0,-1.742676086E0,6.848109283E0,5.282365265E0,8.822522513E0
3.488340458E0,-1.856888580E0,7.009623413E0,5.071753235E0,8.849041556E0
3.498378458E0,-1.858385468E0,7.058122559E0,5.239105225E0,8.984370548E0
3.508416458E0,-1.647474060E0,6.858437805E0,5.832920380E0,9.152884794E0
3.518454458E0,-1.260678406E0,6.485563202E0,6.751410370E0,9.446342259E0
3.528493458E0,-9.647438049E-1,6.055507507E0,7.782017212E0,9.907557402E0
3.538531458E0,-6.569837952E-1,5.691314850E0,8.901838531E0,1.058609568E1
3.548569458E0,-3.752696228E-1,5.376220093E0,9.897118835E0,1.126931813E1
3.558607458E0,-2.966830444E-1,5.103337555E0,1.060080551E1,1.176899114E1
3.568645958E0,-4.578977966E-1,4.826413422E0,1.074824890E1,1.179104708E1
3.578683958E0,-8.041278076E-1,4.526437225E0,1.029274612E1,1.127279372E1
3.588721958E0,-1.178798676E0,4.336631927E0,9.365723877E0,1.038810505E1
3.598759958E0,-1.556613007E0,4.311184845E0,8.411458282E0,9.579247844E0
3.608798958E0,-1.781445465E0,4.380790100E0,7.623047791E0,8.970826465E0
3.618836958E0,-1.880240021E0,4.478985901E0,7.105723572E0,8.607434270E0
3.628874958E0,-1.829794922E0,4.551435242E0,6.916367340E0,8.479377890E0
3.638912958E0,-1.630858612E0,4.625531158E0,7.040758667E0,8.580648048E0
3.648951958E0,-1.391057281E0,4.671186218E0,7.436236267E0,8.891154642E0
3.658989958E0,-1.127156067E0,4.711003418E0,7.799381104E0,9.181197068E0
3.669027958E0,-9.984237671E-1,4.731660461E0,8.080646210E0,9.417128220E0
3.679065958E0,-9.345066833E-1,4.724026337E0,8.291108551E0,9.588128523E0
3.689103958E0,-8.794212341E-1,4.736300812E0,8.450676727E0,9.727274245E0
3.699142958E0,-7.306306458E-1,4.765789490E0,8.590186615E0,9.850780511E0
3.709180958E0,-5.727090454E-1,4.804858246E0,8.706794128E0,9.961070344E0
3.719218958E0,-4.706213379E-1,4.798721008E0,8.655301208E0,9.907746806E0
3.729256958E0,-4.373904419E-1,4.822371826E0,8.453820190E0,9.742363997E0
3.739295958E0,-5.653742981E-1,4.853806458E0,8.080795898E0,9.443428804E0
3.749333958E0,-8.318202209E-1,4.905898132E0,7.558831329E0,9.049623883E0
3.759371958E0,-1.156644745E0,4.992118835E0,7.069798279E0,8.731616416E0
3.769409958E0,-1.338965607E0,5.034929810E0,6.730304260E0,8.511189254E0
3.779447958E0,-1.421893158E0,5.043162689E0,6.460864563E0,8.318535987E0
3.789486958E0,-1.469643860E0,5.094056854E0,6.302643585E0,8.236053938E0
3.799524958E0,-1.523980865E0,5.174439697E0,6.163582764E0,8.190671300E0
3.809562958E0,-1.550026703E0,5.230722656E0,6.033802643E0,8.134483181E0
3.819600958E0,-1.574276276E0,5.273833008E0,5.919739838E0,8.083005637E0
3.829639958E0,-1.549427948E0,5.307512970E0,5.809868317E0,8.020286201E0
3.839677958E0,-1.455423431E0,5.342689819E0,5.712570648E0,7.955881804E0
3.849715958E0,-1.395398254E0,5.420677643E0,5.745502167E0,8.021326420E0
3.859753958E0,-1.270258484E0,5.510640564E0,5.890849915E0,8.165955471E0
3.869792958E0,-1.109043732E0,5.575455780E0,6.247707825E0,8.446865585E0
3.879830958E0,-1.059796143E0,5.625601501E0,6.804849243E0,8.892498712E0
3.889868958E0,-1.204694824E0,5.672603760E0,7.358547821E0,9.368988690E0
3.899906958E0,-1.472038879E0,5.675597534E0,7.867938538E0,9.812428989E0
3.909944958E0,-1.745370483E0,5.613177338E0,8.266559601E0,1.014347502E1
3.919983958E0,-2.004631348E0,5.486840057E0,8.601562958E0,1.039763656E1
3.930021958E0,-2.254611511E0,5.342689819E0,8.824150085E0,1.055903558E1
3.940059958E0,-2.483784943E0,5.205724640E0,8.968450012E0,1.066310707E1
3.950097958E0,-2.628384247E0,5.103337555E0,9.118737488E0,1.077514878E1
3.960136958E0,-2.674338684E0,5.076543274E0,9.309740295E0,1.093593359E1
3.970174958E0,-2.599793701E0,5.116510162E0,9.522897034E0,1.111859575E1
3.980212958E0,-2.419568481E0,5.165158997E0,9.739346924E0,1.128663181E1
3.990250958E0,-2.174677734E0,5.176235962E0,9.843979340E0,1.133254478E1
4.000289958E0,-1.940414886E0,5.210065613E0,9.878258057E0,1.133534189E1
4.010327958E0,-1.692979431E0,5.226980438E0,9.828561401E0,1.126002323E1
4.020365958E0,-1.438209229E0,5.198838959E0,9.730814667E0,1.112587643E1
4.030403958E0,-1.221909027E0,5.165009308E0,9.616153107E0,1.098365984E1
4.040442958E0,-1.063089294E0,5.172044678E0,9.459129639E0,1.083306690E1
4.050480958E0,-9.589059448E-1,5.163961487E0,9.342671814E0,1.071781300E1
4.060518958E0,-9.226812744E-1,5.216651917E0,9.176667023E0,1.059603773E1
4.070556958E0,-9.803114319E-1,5.311554565E0,8.988957367E0,1.048689549E1
4.080594958E0,-9.843530273E-1,5.366340637E0,8.806037750E0,1.035919223E1
4.090633958E0,-9.617500305E-1,5.416486359E0,8.619525604E0,1.022543443E1
4.100671958E0,-9.047186279E-1,5.477259979E0,8.471932526E0,1.012879723E1
4.110709958E0,-8.511300659E-1,5.507646790E0,8.335416412E0,1.002685206E1
4.120747958E0,-7.976911926E-1,5.566474457E0,8.205636292E0,9.947583428E0
4.130786958E0,-6.776408386E-1,5.653443604E0,8.119265900E0,9.916808984E0
4.140824958E0,-5.890251160E-1,5.705535278E0,8.062833252E0,9.894916040E0
4.150862958E0,-5.754034424E-1,5.773943024E0,8.040679321E0,9.915746624E0
4.160900958E0,-5.962101746E-1,5.810167694E0,8.046517181E0,9.942834302E0
4.170939958E0,-6.382727051E-1,5.809119873E0,8.064928894E0,9.959736132E0
4.180977958E0,-6.911128235E-1,5.774392090E0,8.101303253E0,9.972580175E0
4.191015958E0,-7.461982727E-1,5.730233917E0,8.152496796E0,9.992777222E0
4.201053958E0,-8.116122437E-1,5.682632904E0,8.152796173E0,9.970913529E0
4.211091958E0,-9.002279663E-1,5.634582825E0,8.096513214E0,9.905173407E0
4.221130958E0,-9.672885132E-1,5.641767883E0,8.001610565E0,9.838239861E0
4.231168958E0,-1.043480072E0,5.666017456E0,7.907306671E0,9.783562913E0
4.241206958E0,-1.113235016E0,5.683830414E0,7.822433167E0,9.733225622E0
4.251244958E0,-1.209784241E0,5.728737030E0,7.770940247E0,9.729826216E0
4.261283958E0,-1.235979767E0,5.820047150E0,7.840545502E0,9.842497070E0
4.271321958E0,-1.199306030E0,5.919739838E0,8.011789398E0,1.003346521E1
4.281359958E0,-1.100661163E0,5.999224548E0,8.233328705E0,1.024645557E1
4.291397958E0,-8.729846191E-1,5.977669373E0,8.514893188E0,1.044021261E1
4.301436958E0,-6.050418091E-1,5.936205597E0,8.887169037E0,1.070450307E1
4.311474958E0,-4.397854614E-1,5.914051666E0,9.360335083E0,1.108085246E1
4.321512958E0,-3.173400879E-1,5.905519409E0,9.918224945E0,1.154759933E1
4.331550958E0,-2.026785278E-1,5.858666840E0,1.038974442E1,1.192945283E1
4.341589958E0,-1.675016785E-1,5.753435669E0,1.075079361E1,1.219465629E1
4.351627958E0,-1.648072815E-1,5.665568390E0,1.101753891E1,1.238999557E1
4.361665958E0,-1.945953369E-1,5.589975586E0,1.115645004E1,1.248006699E1
4.371703958E0,-2.371069336E-1,5.489235077E0,1.109358078E1,1.237963876E1
4.381741958E0,-2.697390747E-1,5.415737915E0,1.081530945E1,1.209850796E1
4.391780958E0,-2.643502808E-1,5.348228302E0,1.033810181E1,1.164258459E1
4.401818958E0,-2.356100464E-1,5.381159821E0,9.777517548E0,1.116298538E1
4.411856958E0,-1.540296936E-1,5.418881378E0,9.250014496E0,1.072150963E1
4.421894958E0,6.750961304E-2,5.424569550E0,8.730744324E0,1.027893033E1
4.431933958E0,3.156935120E-1,5.408852234E0,8.230933685E0,9.854116613E0
4.441971958E0,5.343887329E-1,5.389991455E0,7.746840363E0,9.452571862E0
4.452009958E0,7.625143433E-1,5.400020599E0,7.279661865E0,9.095885194E0
4.462047958E0,9.892927551E-1,5.365891571E0,6.873855743E0,8.776182843E0
4.472086958E0,1.102307739E0,5.315895538E0,6.504124603E0,8.472158201E0
4.482124958E0,1.126407623E0,5.245541840E0,6.232140198E0,8.223385846E0
4.492162958E0,1.101409607E0,5.178331604E0,6.059549103E0,8.046512080E0
4.502200958E0,9.743238831E-1,5.049449615E0,5.988596649E0,7.893639102E0
4.512239958E0,7.662565613E-1,4.882397003E0,6.066734161E0,7.824973674E0
4.522277958E0,5.773493958E-1,4.758903809E0,6.217171326E0,7.850714431E0
4.532315958E0,4.102967834E-1,4.599485321E0,6.380481720E0,7.876176461E0
4.542353958E0,2.478845215E-1,4.465064850E0,6.532415771E0,7.916483226E0
4.552391958E0,1.143621826E-1,4.390669556E0,6.694678345E0,8.006858060E0
4.562430708E0,3.891906738E-3,4.368216248E0,6.897656250E0,8.164495702E0
4.572468708E0,-5.164260864E-2,4.343367920E0,7.132068787E0,8.350683626E0
4.582506708E0,-6.197113037E-2,4.367916870E0,7.359146576E0,8.558012417E0
4.592544708E0,-1.975891113E-2,4.405189362E0,7.564519501E0,8.753744285E0
4.602583708E0,1.257385254E-2,4.528832245E0,7.736960907E0,8.964989887E0
4.612621708E0,-3.847000122E-2,4.715793457E0,7.830216980E0,9.140704887E0
4.622659708E0,-9.250762939E-2,4.920867004E0,7.768395538E0,9.196274190E0
4.632697708E0,-2.392025757E-1,5.125491486E0,7.501350861E0,9.088352192E0
4.642736708E0,-4.980143738E-1,5.271737366E0,7.195237427E0,8.933682040E0
4.652774708E0,-8.608598328E-1,5.396128693E0,7.000193024E0,8.880427179E0
4.662812708E0,-1.230291595E0,5.495072937E0,6.841972046E0,8.861265455E0
4.672850708E0,-1.626517639E0,5.574258270E0,6.715485077E0,8.877818128E0
4.682889708E0,-1.981279907E0,5.649551697E0,6.664740601E0,8.958887862E0
4.692927708E0,-2.277214508E0,5.749693451E0,6.710096283E0,9.125243713E0
4.702965708E0,-2.490520935E0,5.779481506E0,6.809190216E0,9.272010160E0
4.713003708E0,-2.610271912E0,5.824388123E0,6.986122284E0,9.462712139E0
4.723041708E0,-2.602039032E0,5.833668823E0,7.234755249E0,9.651113023E0
4.733080708E0,-2.539020081E0,5.802683258E0,7.491920471E0,9.810536596E0
4.743118708E0,-2.437381439E0,5.721402283E0,7.687413940E0,9.887952541E0
4.753156708E0,-2.188449097E0,5.583988037E0,7.799381104E0,9.838728447E0
4.763194708E0,-1.915865936E0,5.486241302E0,7.941136322E0,9.840276012E0
4.773233708E0,-1.621428223E0,5.391638031E0,8.166866913E0,9.919501263E0
4.783271708E0,-1.345402222E0,5.306016083E0,8.369096375E0,1.000028439E1
4.793309708E0,-1.059796143E0,5.188510437E0,8.604556732E0,1.010357387E1
4.803347708E0,-8.581654358E-1,5.120551758E0,8.848399658E0,1.025917515E1
4.813386708E0,-6.849755859E-1,5.111869812E0,9.163344727E0,1.051509825E1
4.823424708E0,-4.810995483E-1,5.100493469E0,9.515113220E0,1.080665860E1
4.833462708E0,-2.492317200E-1,5.103936310E0,9.842183075E0,1.108967312E1
4.843500708E0,4.116439819E-2,5.106181641E0,1.008198441E1,1.130138023E1
4.853539708E0,3.243754578E-1,5.096451874E0,1.014305740E1,1.135608448E1
4.863577708E0,5.489085388E-1,5.086273041E0,1.003827530E1,1.126669628E1
4.873615708E0,7.231462097E-1,5.046904907E0,9.862989807E0,1.110282656E1
4.883653708E0,8.864566040E-1,5.047952728E0,9.692793732E0,1.096439156E1
4.893691708E0,1.051114197E0,5.001998291E0,9.476792908E0,1.076728526E1
4.903730708E0,1.143172760E0,4.959636383E0,9.274862823E0,1.057959911E1
4.913768708E0,1.232387238E0,4.902305603E0,9.079369354E0,1.039164695E1
4.923806708E0,1.258283386E0,4.898563385E0,8.887618103E0,1.022589634E1
4.933844708E0,1.246158600E0,4.881947937E0,8.654103699E0,1.001398211E1
4.943883708E0,1.221759338E0,4.884342957E0,8.386759644E0,9.781985449E0
4.953921708E0,1.188977509E0,4.905000000E0,8.076903992E0,9.524130963E0
4.963959708E0,1.117426300E0,4.952451324E0,7.685767365E0,9.211212496E0
4.973997708E0,1.035546570E0,5.031187592E0,7.266040192E0,8.898345090E0
4.984036708E0,9.797126770E-1,5.174739075E0,6.904092865E0,8.683562616E0
4.994074708E0,9.529183960E-1,5.338348846E0,6.617438965E0,8.555496498E0
5.004112708E0,1.004561005E0,5.512436829E0,6.499035187E0,8.580999998E0
5.014150708E0,1.153650970E0,5.675298157E0,6.565946045E0,8.755088075E0
5.024189708E0,1.283730469E0,5.778433685E0,6.773264923E0,8.995297521E0
5.034227708E0,1.369053040E0,5.823489990E0,7.140750732E0,9.315452910E0
5.044265708E0,1.377136230E0,5.817951508E0,7.507787476E0,9.597496378E0
5.054303708E0,1.356778564E0,5.760171661E0,7.733069000E0,9.737596305E0
5.064341708E0,1.256786499E0,5.659281464E0,7.801925812E0,9.719929288E0
5.074380708E0,1.105451202E0,5.593717804E0,7.806715851E0,9.667290914E0
5.084418708E0,9.367520142E-1,5.554199982E0,7.778125305E0,9.603430379E0
5.094456708E0,7.756869507E-1,5.528154144E0,7.750881958E0,9.551876759E0
5.104494708E0,6.165678406E-1,5.576952667E0,7.708370361E0,9.534229417E0
5.114533708E0,4.474195862E-1,5.642666016E0,7.610174561E0,9.484440990E0
5.124571708E0,3.029699707E-1,5.693410492E0,7.508236542E0,9.427636491E0
5.134609708E0,2.722837830E-1,5.743107147E0,7.539371796E0,9.481537071E0
5.144647708E0,4.680766296E-1,5.735473022E0,7.715705109E0,9.625323467E0
5.154686708E0,7.420069885E-1,5.764512634E0,7.989785156E0,9.880123842E0
5.164724708E0,9.831555176E-1,5.804030457E0,8.394543457E0,1.025288858E1
5.174762708E0,1.198407898E0,5.887856140E0,8.967701569E0,1.079456821E1
5.184800708E0,1.413211212E0,6.018684082E0,9.664053497E0,1.147238659E1
5.194839708E0,1.541344757E0,6.027665405E0,1.028975235E1,1.202445414E1
5.204877708E0,1.548978882E0,5.916296997E0,1.070049820E1,1.232487596E1
5.214915708E0,1.341061249E0,5.745801544E0,1.079959213E1,1.230625332E1
5.224953708E0,9.069639587E-1,5.567522278E0,1.057431061E1,1.198482093E1
5.234992708E0,3.900888062E-1,5.450016632E0,1.020487885E1,1.157559514E1
5.245030708E0,-1.683998108E-1,5.436394958E0,9.848619690E0,1.125069146E1
5.255068708E0,-5.451663208E-1,5.446573792E0,9.560019836E0,1.101618589E1
5.265106708E0,-6.632707214E-1,5.442831573E0,9.296867065E0,1.079333502E1
5.275144708E0,-6.734495544E-1,5.435347137E0,9.000483398E0,1.053590215E1
5.285183708E0,-7.391629028E-1,5.461991730E0,8.703650665E0,1.030209932E1
5.295221708E0,-8.144563293E-1,5.515131226E0,8.386310577E0,1.007026398E1
5.305259708E0,-9.042695618E-1,5.541775818E0,8.071365509E0,9.832391562E0
5.315297708E0,-1.019529877E0,5.537285156E0,7.818391571E0,9.634739998E0
5.325336708E0,-1.184786224E0,5.499563599E0,7.592511292E0,9.449610885E0
5.335374708E0,-1.373843079E0,5.465284882E0,7.461383972E0,9.350349428E0
5.345412708E0,-1.546883240E0,5.414839783E0,7.424859924E0,9.318899212E0
5.355450708E0,-1.711391144E0,5.359155579E0,7.429649963E0,9.319286815E0
5.365489708E0,-1.792223053E0,5.302423553E0,7.454049225E0,9.321513228E0
5.375527708E0,-1.784139862E0,5.212760010E0,7.492818604E0,9.300449053E0
5.385565708E0,-1.782792664E0,5.175786896E0,7.560777283E0,9.334477639E0
5.395603708E0,-1.741777954E0,5.165009308E0,7.690707092E0,9.426456767E0
5.405642708E0,-1.618584137E0,5.142855377E0,7.870932312E0,9.540458663E0
5.415680708E0,-1.449884949E0,5.121300201E0,8.081843719E0,9.677090473E0
5.425718708E0,-1.248553619E0,5.044360199E0,8.265062714E0,9.762976883E0
5.435756708E0,-1.047371979E0,4.910837860E0,8.414601746E0,9.798920302E0
5.445794708E0,-9.111552429E-1,4.809797974E0,8.590036926E0,9.887016477E0
5.455833708E0,-8.590635681E-1,4.668491821E0,8.778195648E0,9.979455142E0
5.465871708E0,-8.702902222E-1,4.565505981E0,8.922196198E0,1.006016078E1
5.475909708E0,-9.443861389E-1,4.463717651E0,8.992400208E0,1.008364527E1
5.485947708E0,-1.081051941E0,4.406087494E0,8.966204681E0,1.004863706E1
5.495986708E0,-1.231938171E0,4.399950256E0,8.852890320E0,9.962474639E0
5.506024708E0,-1.360520782E0,4.408931580E0,8.653504944E0,9.806775326E0
5.516062708E0,-1.422342224E0,4.441863098E0,8.361462250E0,9.574301862E0
5.526100708E0,-1.499731293E0,4.522545319E0,8.032147064E0,9.339057585E0
5.536139708E0,-1.584155731E0,4.658163300E0,7.753726044E0,9.183044281E0
5.546177708E0,-1.586999817E0,4.809947662E0,7.587421875E0,9.122671519E0
5.556215708E0,-1.517843628E0,4.955894165E0,7.472610626E0,9.094209467E0
5.566254083E0,-1.437610474E0,5.084776154E0,7.395071869E0,9.088936151E0
5.576293083E0,-1.386716309E0,5.193749542E0,7.381001129E0,9.131111329E0
5.586331083E0,-1.376836853E0,5.252577209E0,7.398514709E0,9.177323519E0
5.596369083E0,-1.397643585E0,5.259462891E0,7.451654205E0,9.227269796E0
5.606407083E0,-1.431473236E0,5.250631256E0,7.500003662E0,9.266514941E0
5.616446083E0,-1.488654327E0,5.242248688E0,7.520960083E0,9.287739423E0
5.626484083E0,-1.478774872E0,5.211113434E0,7.550448761E0,9.292564492E0
5.636522083E0,-1.515598297E0,5.192402344E0,7.553292847E0,9.290334393E0
5.646560083E0,-1.521436157E0,5.258564758E0,7.576644287E0,9.347342400E0
5.656598083E0,-1.538650360E0,5.270240479E0,7.620054016E0,9.391916889E0
5.666637083E0,-1.542841644E0,5.290897522E0,7.638016663E0,9.418771441E0
5.676675083E0,-1.584305420E0,5.290747833E0,7.646997986E0,9.432847634E0
5.686713083E0,-1.648671570E0,5.254223785E0,7.648644562E0,9.424794383E0
5.696751083E0,-1.702409821E0,5.248834991E0,7.619155884E0,9.407444092E0
5.706790083E0,-1.749711456E0,5.247787170E0,7.543413391E0,9.354349040E0
5.716828083E0,-1.811832275E0,5.216202850E0,7.467221832E0,9.287136817E0
5.726866083E0,-1.907183990E0,5.233417053E0,7.485034790E0,9.330152766E0
5.736904083E0,-1.992207184E0,5.204377441E0,7.602839813E0,9.426431310E0
5.746943083E0,-2.014211426E0,5.195396118E0,7.709418182E0,9.512324490E0
5.756981083E0,-2.030976563E0,5.186863861E0,7.823031921E0,9.603554079E0
5.767019083E0,-2.006876678E0,5.192252655E0,7.949518890E0,9.704735557E0
5.777057083E0,-1.953138428E0,5.225034485E0,8.059689789E0,9.801751608E0
5.787096083E0,-1.881886597E0,5.240302734E0,8.198002167E0,9.910071112E0
5.797134083E0,-1.832639008E0,5.269042969E0,8.280330963E0,9.984250618E0
5.807172083E0,-1.827848969E0,5.301076355E0,8.342002716E0,1.005144028E1
5.817210083E0,-1.785337372E0,5.343887329E0,8.299191742E0,1.003100917E1
5.827249083E0,-1.800605621E0,5.395679626E0,8.200546875E0,9.980205824E0
5.837287083E0,-1.823208618E0,5.421276398E0,8.101303253E0,9.916927036E0
5.847325083E0,-1.923200684E0,5.484145660E0,8.039631500E0,9.920193000E0
5.857363083E0,-2.004930725E0,5.539680176E0,7.994425507E0,9.930691962E0
5.867401083E0,-2.079924774E0,5.576802979E0,7.983797607E0,9.958305215E0
5.877440083E0,-2.157313843E0,5.623206482E0,7.912695465E0,9.944103966E0
5.887478083E0,-2.186503143E0,5.634133759E0,7.769593048E0,9.843314246E0
5.897516083E0,-2.226470032E0,5.637576599E0,7.646099854E0,9.757165658E0
5.907554083E0,-2.268682251E0,5.700445862E0,7.615563354E0,9.779509568E0
5.917593083E0,-2.295626221E0,5.740712128E0,7.630981293E0,9.821280516E0
5.927631083E0,-2.251917114E0,5.730982361E0,7.688461761E0,9.850265670E0
5.937669083E0,-2.199675751E0,5.653593292E0,7.790699158E0,9.874040910E0
5.947707083E0,-2.186203766E0,5.599855042E0,7.919132080E0,9.942359694E0
5.957746083E0,-2.291434937E0,5.695057068E0,8.069868622E0,1.013938502E1
5.967784083E0,-2.376009064E0,5.757776642E0,8.136330414E0,1.024681821E1
5.977822083E0,-2.202370148E0,5.673352203E0,8.174650726E0,1.019128422E1
5.987860083E0,-2.100282440E0,5.585335236E0,8.268954620E0,1.019719405E1
5.997899083E0,-2.124532013E0,5.542524261E0,8.369395752E0,1.026060411E1
6.007937083E0,-2.159559174E0,5.486091614E0,8.487200775E0,1.033409280E1
6.017975083E0,-2.141446838E0,5.390590210E0,8.608298950E0,1.038012852E1
6.028013083E0,-2.056124268E0,5.286257172E0,8.826395416E0,1.049177859E1
6.038052083E0,-1.915117493E0,5.168302460E0,9.118288422E0,1.065468015E1
6.048090083E0,-1.807790680E0,5.020110626E0,9.452693024E0,1.085463142E1
6.058128083E0,-1.708247681E0,4.886288910E0,9.774972839E0,1.106092326E1
6.068166083E0,-1.623823242E0,4.747677155E0,1.000699036E1,1.119451188E1
6.078205083E0,-1.584604797E0,4.524191895E0,1.007943970E1,1.116128977E1
6.088243083E0,-1.543739777E0,4.217330017E0,1.001432510E1,1.097523176E1
6.098281083E0,-1.481319580E0,3.904031525E0,9.777667236E0,1.063195873E1
6.108319083E0,-1.415606232E0,3.643124084E0,9.466314697E0,1.024145537E1
6.118357083E0,-1.404379578E0,3.515589294E0,9.197174377E0,9.945836647E0
6.128396083E0,-1.271306305E0,3.500620422E0,8.926537170E0,9.672312491E0
6.138434083E0,-1.080153809E0,3.458258514E0,8.695268097E0,9.419871097E0
6.148472083E0,-8.937913513E-1,3.445085907E0,8.447233887E0,9.166419160E0
6.158510083E0,-7.415579224E-1,3.497776337E0,8.177943878E0,8.925419516E0
6.168549083E0,-6.679110718E-1,3.570075989E0,7.839647369E0,8.640116819E0
6.178587083E0,-6.798861694E-1,3.623814240E0,7.407496033E0,8.274374437E0
6.188625083E0,-7.571255493E-1,3.713627472E0,6.957980804E0,7.923242075E0
6.198663083E0,-9.153465271E-1,3.849395142E0,6.424939270E0,7.545564713E0
6.208702083E0,-1.134041748E0,3.960164795E0,5.885161743E0,7.183598307E0
6.218740083E0,-1.403032379E0,3.997437286E0,5.395679626E0,6.860128523E0
6.228778083E0,-1.763482819E0,3.973936157E0,5.059179382E0,6.670632373E0
6.238816083E0,-2.168540497E0,3.976480865E0,4.984185333E0,6.734765875E0
6.248855083E0,-2.540516968E0,3.898343353E0,5.128485260E0,6.924786526E0
6.258893083E0,-2.777025146E0,3.724554749E0,5.580395508E0,7.261197612E0
6.268931083E0,-3.007994843E0,3.489244080E0,6.246360626E0,7.761435324E0
6.278969083E0,-3.200494537E0,3.204236755E0,7.054380341E0,8.382993526E0
6.289008083E0,-3.381917267E0,2.892285461E0,7.835007019E0,9.010550182E0
6.299046083E0,-3.596421204E0,2.660567322E0,8.535699921E0,9.636962026E0
6.309084083E0,-3.725153503E0,2.517464905E0,9.214538269E0,1.025290757E1
6.319122083E0,-3.716621246E0,2.364632721E0,9.873917084E0,1.081198409E1
6.329161083E0,-3.608695679E0,2.261497192E0,1.065604065E1,1.147555037E1
6.339199083E0,-3.402424622E0,2.241289215E0,1.146645538E1,1.216879081E1
6.349237083E0,-3.061583405E0,2.265688477E0,1.230246689E1,1.287856082E1
6.359275083E0,-2.622845764E0,2.302362213E0,1.307650726E1,1.353422454E1
6.369313083E0,-2.149080963E0,2.391127625E0,1.380609009E1,1.417547755E1
6.379352083E0,-1.699266357E0,2.535427551E0,1.444391373E1,1.476287718E1
6.389390083E0,-1.266516266E0,2.629881134E0,1.481169891E1,1.509658117E1
6.399428083E0,-8.672964478E-1,2.665207672E0,1.484283417E1,1.510514022E1
6.409466083E0,-5.734574890E-1,2.663860474E0,1.445588882E1,1.471046321E1
6.419505083E0,-4.144880676E-1,2.665357361E0,1.370340363E1,1.396635962E1
6.429543083E0,-3.402424622E-1,2.731968842E0,1.276036469E1,1.305397739E1
6.439581083E0,-2.754272461E-1,2.790497131E0,1.191716812E1,1.224261534E1
6.449619083E0,-1.579216003E-1,2.799628143E0,1.130449219E1,1.164707691E1
6.459658083E0,3.143463135E-2,2.763553162E0,1.084614532E1,1.119272454E1
6.469696083E0,2.552192688E-1,2.699935455E0,1.049018555E1,1.083507181E1
6.479734083E0,4.843927002E-1,2.635120239E0,1.017613861E1,1.052294122E1
6.489772083E0,6.593788147E-1,2.564766541E0,9.801767120E0,1.015319883E1
6.499811083E0,7.867639160E-1,2.547402649E0,9.422006836E0,9.791959484E0
6.509849083E0,9.225315857E-1,2.612816620E0,8.995543671E0,9.412634124E0
6.519887083E0,1.049617310E0,2.697839813E0,8.602311401E0,9.076331726E0
6.529925083E0,1.147364044E0,2.797233124E0,8.268505554E0,8.803927618E0
6.539964083E0,1.275946655E0,2.957250366E0,8.113727417E0,8.729601491E0
6.550002083E0,1.413959656E0,3.146456909E0,8.099207611E0,8.803217418E0
6.560040083E0,1.664388885E0,3.302282867E0,8.248447266E0,9.039477020E0
6.570078125E0,1.969454498E0,3.427572327E0,8.481662292E0,9.357649188E0
6.580117125E0,2.304308167E0,3.535946960E0,8.704099731E0,9.673371138E0
6.590155125E0,2.609523468E0,3.635340271E0,8.859776001E0,9.925771628E0
6.600193125E0,2.863096161E0,3.707789612E0,8.979077911E0,1.012762872E1
6.610231125E0,3.096610565E0,3.799698486E0,8.971294098E0,1.022305352E1
6.620269125E0,3.270399170E0,3.858675842E0,8.850345612E0,1.019379750E1
6.630308125E0,3.349584503E0,3.865262146E0,8.614885254E0,1.001879313E1
6.640346125E0,3.294648743E0,3.874542847E0,8.344248047E0,9.772065702E0
6.650384125E0,3.122955780E0,3.857628021E0,8.030650177E0,9.440629694E0
6.660422125E0,2.923720093E0,3.830833740E0,7.720345459E0,9.100942827E0
6.670461125E0,2.743494873E0,3.802243195E0,7.445067902E0,8.798457449E0
6.680499125E0,2.589465179E0,3.784280548E0,7.203320618E0,8.538965810E0
6.690537125E0,2.419718170E0,3.842659149E0,7.033723297E0,8.372235590E0
6.700575125E0,2.254761200E0,3.976331177E0,6.971003723E0,8.336069254E0
6.710614125E0,2.138752441E0,4.156706085E0,7.119944000E0,8.517398080E0
6.720652125E0,2.279908905E0,4.372407532E0,7.465275879E0,8.946858454E0
6.730690125E0,2.597099304E0,4.650529175E0,7.863148499E0,9.497444431E0
6.740728125E0,2.984793091E0,4.893773346E0,8.255183258E0,1.005017701E1
6.750767125E0,3.263812866E0,5.104085999E0,8.591234436E0,1.051253906E1
6.760805125E0,3.375780029E0,5.278173981E0,8.809330902E0,1.081014904E1
6.770843125E0,3.381767578E0,5.398074646E0,8.946745148E0,1.098270507E1
6.780881125E0,3.350033569E0,5.456602936E0,9.007818146E0,1.105160750E1
6.790920125E0,3.238365784E0,5.442382507E0,8.973689117E0,1.098333450E1
6.800958125E0,3.058439941E0,5.388494568E0,9.013506317E0,1.093769741E1
6.810996125E0,2.921025696E0,5.375321960E0,9.192833405E0,1.104240297E1
6.821034125E0,2.863694916E0,5.423222351E0,9.523196411E0,1.132710727E1
6.831073125E0,2.856060791E0,5.473368073E0,9.907746735E0,1.167382913E1
6.841111125E0,2.782264252E0,5.547314301E0,1.019844223E1,1.193825424E1
6.851149125E0,2.583327942E0,5.568420410E0,1.024230103E1,1.194092205E1
6.861187125E0,2.269281006E0,5.514682159E0,9.921667786E0,1.157587350E1
6.871226125E0,1.915716248E0,5.428760834E0,9.207652588E0,1.085920251E1
6.881264125E0,1.434317322E0,5.378016357E0,8.352630615E0,1.003726877E1
6.891302125E0,1.049766998E0,5.350922699E0,7.558531952E0,9.320181852E0
6.901340125E0,7.688012695E-1,5.417983246E0,6.944508820E0,8.841481810E0
6.911379125E0,5.592370605E-1,5.599405975E0,6.565347290E0,8.646957754E0
6.921417125E0,4.662803650E-1,5.827830963E0,6.457571411E0,8.710984998E0
6.931455125E0,4.992118835E-1,6.022426300E0,6.550378418E0,8.912142754E0
6.941493125E0,6.770420837E-1,6.040838013E0,6.919061737E0,9.209968795E0
6.951531125E0,1.002764740E0,5.773493958E0,7.588918762E0,9.588037212E0
6.961570125E0,1.266067200E0,5.307363281E0,8.273445282E0,9.910647203E0
6.971608125E0,1.238973541E0,4.860542450E0,8.911119232E0,1.022584834E1
6.981646125E0,9.928852844E-1,4.424648895E0,9.443562012E0,1.047588672E1
6.991684125E0,5.316943359E-1,4.061504059E0,9.864037628E0,1.068071872E1
7.001723125E0,-3.382965088E-2,3.836072845E0,1.004695724E1,1.075443858E1
7.011761125E0,-6.572831726E-1,3.770060120E0,9.912686462E0,1.062575773E1
7.021799125E0,-1.379231873E0,3.802093506E0,9.533225555E0,1.035570302E1
7.031837125E0,-2.074835358E0,3.868405609E0,9.049581299E0,1.005805276E1
7.041876125E0,-2.625689850E0,3.928430786E0,8.663234711E0,9.868052051E0
7.051914125E0,-2.924618225E0,3.989653473E0,8.397237854E0,9.745990467E0
7.061952125E0,-3.071163483E0,4.107907562E0,8.301287384E0,9.757987595E0
7.071990125E0,-3.020419006E0,4.194277954E0,8.368497620E0,9.835987543E0
7.082029125E0,-2.803520050E0,4.265529785E0,8.583600311E0,9.986624221E0
7.092067125E0,-2.427951050E0,4.209246826E0,8.968150635E0,1.020002113E1
7.102105125E0,-1.879491577E0,4.071084137E0,9.418713684E0,1.043160496E1
7.112143125E0,-1.412313080E0,3.990850983E0,9.859696655E0,1.073010428E1
7.122182125E0,-1.123264160E0,3.917054443E0,1.040740768E1,1.117672459E1
7.132220125E0,-9.380992126E-1,3.831282806E0,1.097128510E1,1.165881018E1
7.142258125E0,-9.051676941E-1,3.739822998E0,1.147783173E1,1.210562785E1
7.152296125E0,-1.012943573E0,3.604354706E0,1.179292648E1,1.237297630E1
7.162335125E0,-1.269510040E0,3.459006958E0,1.179442337E1,1.235656941E1
7.172373125E0,-1.556463318E0,3.282374268E0,1.145148651E1,1.201387124E1
7.182411125E0,-1.860930176E0,3.220103760E0,1.077624069E1,1.139997775E1
7.192449125E0,-2.182311859E0,3.342249756E0,9.962083740E0,1.073201896E1
7.202488125E0,-2.379451904E0,3.500620422E0,9.239685974E0,1.016306704E1
7.212526125E0,-2.451901245E0,3.713178406E0,8.618627472E0,9.699497569E0
7.222564125E0,-2.438728638E0,3.938310242E0,8.099506989E0,9.330578674E0
7.232602125E0,-2.426454163E0,4.192481689E0,7.710466003E0,9.105815093E0
7.242640125E0,-2.430495758E0,4.489314423E0,7.496860199E0,9.069959562E0
7.252679125E0,-2.374961243E0,4.772675171E0,7.453450470E0,9.163667012E0
7.262717125E0,-2.252366180E0,4.999752960E0,7.508835297E0,9.298026166E0
7.272755125E0,-2.086211700E0,5.198389893E0,7.605534210E0,9.445617362E0
7.282793125E0,-1.889820099E0,5.330115967E0,7.678881683E0,9.536602127E0
7.292832125E0,-1.716929626E0,5.477559357E0,7.685617676E0,9.592717181E0
7.302870125E0,-1.628613281E0,5.589526520E0,7.632178802E0,9.599236491E0
7.312908125E0,-1.537303162E0,5.643264771E0,7.555538177E0,9.554888562E0
7.322946125E0,-1.503174133E0,5.671256561E0,7.497458954E0,9.520219232E0
7.332985125E0,-1.478475494E0,5.689069519E0,7.483537903E0,9.516025500E0
7.343023125E0,-1.415157166E0,5.696703644E0,7.476652222E0,9.505547362E0
7.353061125E0,-1.378782806E0,5.678740997E0,7.458689575E0,9.475293743E0
7.363099125E0,-1.415606232E0,5.678291931E0,7.404801636E0,9.438115677E0
7.373138125E0,-1.466201019E0,5.710624695E0,7.314988403E0,9.395213418E0
7.383176125E0,-1.510658569E0,5.720055084E0,7.195536804E0,9.315410317E0
7.393214125E0,-1.559008026E0,5.735772400E0,7.018155670E0,9.196961458E0
7.403252125E0,-1.640139313E0,5.760021973E0,6.773115234E0,9.041183555E0
7.413291125E0,-1.724863129E0,5.805227966E0,6.562952271E0,8.930182924E0
7.423329125E0,-1.751058655E0,5.881569214E0,6.423442383E0,8.883674627E0
7.433367125E0,-1.674118652E0,5.970334625E0,6.380332031E0,8.896977331E0
7.443405125E0,-1.566043396E0,6.064189453E0,6.417155457E0,8.966982201E0
7.453444125E0,-1.498084717E0,6.154302063E0,6.578519897E0,9.132174754E0
7.463482125E0,-1.410666504E0,6.244115295E0,6.806944885E0,9.344166869E0
7.473520125E0,-1.338965607E0,6.260581055E0,7.051685944E0,9.524388625E0
7.483558125E0,-1.264720001E0,6.321055298E0,7.217690735E0,9.677309353E0
7.493597125E0,-1.245709534E0,6.361620941E0,7.357200623E0,9.805631761E0
7.503635125E0,-1.251697083E0,6.356232147E0,7.439080353E0,9.864499439E0
7.513673125E0,-1.320553894E0,6.365662537E0,7.423063660E0,9.867491891E0
7.523711125E0,-1.437909851E0,6.365063782E0,7.315287781E0,9.802808628E0
7.533750125E0,-1.524878998E0,6.374494171E0,7.168742523E0,9.713408324E0
7.543788125E0,-1.506616974E0,6.397995300E0,7.021748199E0,9.618169594E0
7.553826125E0,-1.386117554E0,6.427184601E0,6.907236328E0,9.536243362E0
7.563864125E0,-1.249751129E0,6.490652618E0,6.855593719E0,9.523109500E0
7.573902750E0,-1.091679840E0,6.542145538E0,6.913972321E0,9.580941831E0
7.583940750E0,-9.418414307E-1,6.556066589E0,7.085964661E0,9.699482954E0
7.593978750E0,-7.632627869E-1,6.538253632E0,7.334298248E0,9.855113466E0
7.604016750E0,-6.982978821E-1,6.544989624E0,7.543114014E0,1.001114769E1
7.614054750E0,-6.797364807E-1,6.596931610E0,7.611072693E0,1.009504710E1
7.624093750E0,-5.492079163E-1,6.583908691E0,7.653733978E0,1.011084204E1
7.634131750E0,-2.637515259E-1,6.497089233E0,7.685018921E0,1.006683909E1
7.644169750E0,1.140628052E-1,6.367458801E0,7.782765656E0,1.005629073E1
7.654207750E0,5.037025452E-1,6.226751404E0,7.987390137E0,1.014024410E1
7.664246750E0,8.309220886E-1,6.151008911E0,8.276139679E0,1.034503891E1
7.674284750E0,1.007105713E0,6.096671906E0,8.553363190E0,1.055195205E1
7.684322750E0,1.035396881E0,6.058501282E0,8.751700745E0,1.069437938E1
7.694360750E0,9.168434143E-1,5.924529877E0,8.871601410E0,1.070728573E1
7.704399750E0,7.203021240E-1,5.700146484E0,9.026978302E0,1.070031973E1
7.714437750E0,5.983058167E-1,5.381758575E0,9.227112122E0,1.069863979E1
7.724475750E0,4.709207153E-1,5.035977631E0,9.436376953E0,1.070644885E1
7.734513750E0,3.682342529E-1,4.837640076E0,9.672885132E0,1.082141695E1
7.744552750E0,2.472857666E-1,4.713997192E0,9.865085449E0,1.093630791E1
7.754590750E0,2.510279846E-1,4.644691315E0,9.937534790E0,1.097227279E1
7.764628750E0,3.197351074E-1,4.592449951E0,9.833501129E0,1.085774247E1
7.774666750E0,3.918850708E-1,4.521647186E0,9.549541626E0,1.057320256E1
7.784705750E0,4.382885742E-1,4.555327148E0,9.163344727E0,1.024255773E1
7.794743750E0,4.936734009E-1,4.554578705E0,8.763077087E0,9.888347721E0
7.804781750E0,5.342390442E-1,4.532424774E0,8.454718323E0,9.607837822E0
7.814819750E0,5.608836365E-1,4.477039948E0,8.251291351E0,9.404375902E0
7.824858750E0,4.855902100E-1,4.460723877E0,8.139922943E0,9.294740495E0
7.834896750E0,3.300636292E-1,4.486769714E0,8.030201111E0,9.204573556E0
7.844934750E0,1.350192261E-1,4.537065125E0,7.885003052E0,9.098157135E0
7.854972750E0,-2.903961182E-2,4.567751312E0,7.742200012E0,8.989263395E0
7.865011750E0,-2.312690735E-1,4.613106995E0,7.589517517E0,8.884538124E0
7.875049750E0,-3.864962769E-1,4.666246490E0,7.423213348E0,8.776521640E0
7.885087750E0,-4.939727783E-1,4.699477386E0,7.314539337E0,8.708133125E0
7.895125750E0,-5.743556213E-1,4.764442291E0,7.341632996E0,8.770938933E0
7.905164750E0,-7.077282715E-1,4.829856262E0,7.459587708E0,8.914810126E0
7.915202750E0,-7.937992859E-1,4.887037354E0,7.614066467E0,9.082249698E0
7.925240750E0,-8.460406494E-1,4.940326538E0,7.749983826E0,9.229564474E0
7.935278750E0,-8.779243469E-1,4.985682220E0,7.778724060E0,9.280965810E0
7.945317750E0,-9.388476562E-1,5.025050354E0,7.709268494E0,9.250156036E0
7.955355750E0,-9.638456726E-1,5.081932068E0,7.589667206E0,9.184665498E0
7.965393750E0,-9.671388245E-1,5.099745026E0,7.451654205E0,9.081294359E0
7.975431750E0,-9.319619751E-1,5.096451874E0,7.379055176E0,9.016253663E0
7.985470750E0,-8.560697937E-1,5.097200317E0,7.385791168E0,9.014666813E0
7.995508750E0,-8.220904541E-1,5.055886230E0,7.457192688E0,9.046963086E0
8.005546750E0,-8.234376526E-1,5.015021210E0,7.556436310E0,9.106493123E0
8.015584750E0,-8.571176147E-1,4.985981598E0,7.660020905E0,9.179901054E0
8.025623750E0,-8.873547363E-1,4.966971130E0,7.761509857E0,9.257388179E0
8.035661750E0,-9.142987061E-1,4.939877472E0,7.880961456E0,9.346009043E0
8.045699750E0,-8.943901062E-1,4.923711090E0,7.946824493E0,9.391213132E0
8.055737750E0,-9.089099121E-1,4.897814941E0,7.895780640E0,9.335848132E0
8.065776750E0,-9.536668396E-1,4.911885681E0,7.841443634E0,9.301846035E0
8.075814750E0,-9.521699524E-1,4.934488678E0,7.761659546E0,9.246575855E0
8.085852750E0,-9.580078125E-1,4.991969147E0,7.713160400E0,9.237444359E0
8.095890750E0,-9.818083191E-1,5.045258331E0,7.750881958E0,9.300255391E0
8.105928750E0,-9.545649719E-1,5.112618256E0,7.839347992E0,9.407732811E0
8.115967750E0,-1.008752289E0,5.172643433E0,7.948770447E0,9.537126028E0
8.126005750E0,-1.056203613E0,5.259762268E0,8.043972473E0,9.668824041E0
8.136043750E0,-1.105900269E0,5.300776978E0,8.089178467E0,9.734272455E0
8.146081750E0,-1.122964783E0,5.385949860E0,8.154742126E0,9.837140079E0
8.156120750E0,-1.070573730E0,5.515879669E0,8.233328705E0,9.967886346E0
8.166158750E0,-1.033750305E0,5.702242126E0,8.348589020E0,1.016283147E1
8.176196750E0,-9.282197571E-1,5.935008087E0,8.451125793E0,1.036857946E1
8.186234750E0,-7.481442261E-1,6.010301514E0,8.461903381E0,1.040611613E1
8.196273750E0,-5.870791626E-1,5.969137115E0,8.418343964E0,1.033652625E1
8.206311750E0,-4.751119995E-1,5.924978943E0,8.378377075E0,1.027269727E1
8.216349750E0,-5.107379150E-1,5.949976959E0,8.370742950E0,1.028262693E1
8.226387750E0,-6.288423157E-1,5.950575714E0,8.354426880E0,1.027624652E1
8.236426750E0,-6.774911499E-1,5.854475555E0,8.470585327E0,1.031914212E1
8.246464750E0,-7.129673767E-1,5.727689209E0,8.719667358E0,1.045692809E1
8.256502750E0,-9.394464111E-1,5.626799011E0,8.957522736E0,1.061982298E1
8.266540750E0,-1.323547668E0,5.622158661E0,9.138795776E0,1.081101451E1
8.276579750E0,-1.763632507E0,5.650300140E0,9.155111847E0,1.090194314E1
8.286617750E0,-2.143392792E0,5.709576874E0,8.994645538E0,1.086724662E1
8.296655750E0,-2.391277313E0,5.739664307E0,8.714877319E0,1.070565459E1
8.306693750E0,-2.535726929E0,5.772146759E0,8.398884430E0,1.050184979E1
8.316732750E0,-2.661914520E0,5.761369171E0,8.132288818E0,1.031568151E1
8.326770750E0,-2.681673431E0,5.593268738E0,8.044571228E0,1.015830467E1
8.336808750E0,-2.650238800E0,5.282814331E0,8.174800415E0,1.008757923E1
8.346846750E0,-2.541564789E0,4.826563110E0,8.537047119E0,1.013096425E1
8.356885750E0,-2.516866150E0,4.351900177E0,9.067394257E0,1.036780059E1
8.366923750E0,-2.608026581E0,3.974684601E0,9.580227814E0,1.069489062E1
8.376961750E0,-2.793341217E0,3.789519653E0,1.012434631E1,1.116537517E1
8.386999750E0,-2.827619934E0,3.697161713E0,1.063283890E1,1.160696783E1
8.397038750E0,-2.805615692E0,3.702849884E0,1.093835358E1,1.188402944E1
8.407076750E0,-2.737507324E0,3.803740082E0,1.099433716E1,1.195147834E1
8.417114750E0,-2.632725220E0,3.960164795E0,1.067071014E1,1.168238855E1
8.427152750E0,-2.472109222E0,4.154909821E0,9.864935760E0,1.098597093E1
8.437191750E0,-2.350711670E0,4.364923096E0,8.896300049E0,1.018442701E1
8.447229750E0,-2.158810730E0,4.501588898E0,8.082592163E0,9.500161180E0
8.457267750E0,-1.993853760E0,4.615502014E0,7.405999146E0,8.951376151E0
8.467305750E0,-1.863474884E0,4.679568787E0,7.037764893E0,8.654538541E0
8.477344750E0,-1.659449158E0,4.623884583E0,7.103478241E0,8.636751893E0
8.487382750E0,-1.433718567E0,4.445605316E0,7.577392731E0,8.901451351E0
8.497420750E0,-1.244512024E0,4.163442078E0,8.266409912E0,9.338982436E0
8.507458750E0,-1.157243500E0,3.879632263E0,8.863218842E0,9.744096020E0
8.517497750E0,-1.202449493E0,3.672313385E0,9.341324615E0,1.010901162E1
8.527535750E0,-1.247505798E0,3.528163147E0,9.686955872E0,1.038466754E1
8.537573750E0,-1.206790466E0,3.427572327E0,9.802515564E0,1.045437261E1
8.547611750E0,-1.171912994E0,3.343147888E0,9.648485870E0,1.027829254E1
8.557649750E0,-1.116977234E0,3.338956604E0,9.309440918E0,9.952987469E0
8.567689375E0,-1.113833771E0,3.437302094E0,8.910370789E0,9.615112009E0
8.577727375E0,-1.089135132E0,3.577261047E0,8.575816498E0,9.355620799E0
8.587765375E0,-1.029559021E0,3.616030426E0,8.339757385E0,9.148071986E0
8.597803375E0,-1.002615051E0,3.609444122E0,8.161927185E0,8.980555617E0
8.607842375E0,-1.062490540E0,3.599864044E0,8.114924927E0,8.940912361E0
8.617880375E0,-1.149010620E0,3.589535522E0,8.091124420E0,8.925877271E0
8.627918375E0,-1.227297821E0,3.615132294E0,7.991132355E0,8.856276743E0
8.637956375E0,-1.211131439E0,3.649111633E0,7.807613983E0,8.702970251E0
8.647995375E0,-1.175655212E0,3.735032959E0,7.636220398E0,8.581637277E0
8.658033375E0,-1.121467896E0,3.860172729E0,7.497608643E0,8.507218059E0
8.668071375E0,-1.104253693E0,4.019441528E0,7.416327667E0,8.507479209E0
8.678109375E0,-1.416354675E0,4.124672699E0,7.366181946E0,8.560351739E0
8.688148375E0,-1.477577362E0,4.332590332E0,7.205266571E0,8.536418465E0
8.698186375E0,-7.536827087E-1,4.379592590E0,7.296127625E0,8.542970631E0
8.708224375E0,-6.219566345E-1,4.215384064E0,7.761509857E0,8.854226568E0
8.718263375E0,-9.321116638E-1,4.340374146E0,8.052055664E0,9.194741992E0
8.728301375E0,-1.319655762E0,4.474046173E0,8.128247223E0,9.371605167E0
8.738339375E0,-1.483714600E0,4.454287262E0,8.227191467E0,9.472526773E0
8.748377375E0,-1.478924561E0,4.384083252E0,8.321794739E0,9.521537244E0
8.758415375E0,-1.468745728E0,4.358187103E0,8.379275208E0,9.558413145E0
8.768454375E0,-1.506167908E0,4.411775665E0,8.406967621E0,9.612981372E0
8.778492375E0,-1.559606781E0,4.486620026E0,8.361013184E0,9.616063333E0
8.788530375E0,-1.557810516E0,4.575834503E0,8.269403687E0,9.578521407E0
8.798568375E0,-1.521585846E0,4.687502289E0,8.173602905E0,9.544405987E0
8.808607375E0,-1.472038879E0,4.767436066E0,8.102949829E0,9.515941416E0
8.818645375E0,-1.401086426E0,4.808600464E0,8.058043213E0,9.487768021E0
8.828683375E0,-1.357976074E0,4.835993500E0,8.058641968E0,9.495927680E0
8.838721375E0,-1.373394012E0,4.858746185E0,8.191864929E0,9.622903752E0
8.848760375E0,-1.389560394E0,4.874014435E0,8.394543457E0,9.805878576E0
8.858798375E0,-1.417103119E0,4.811444550E0,8.673413544E0,1.001929550E1
8.868836375E0,-1.434017944E0,4.733007660E0,8.966953125E0,1.024031334E1
8.878874375E0,-1.508263550E0,4.634213104E0,9.269174652E0,1.047226760E1
8.888913375E0,-1.633253632E0,4.560566254E0,9.418414307E0,1.059116660E1
8.898951375E0,-1.746567993E0,4.565056915E0,9.403146057E0,1.059761295E1
8.908989375E0,-1.880090332E0,4.557422791E0,9.185498657E0,1.042488502E1
8.919027375E0,-1.962119751E0,4.553381195E0,8.885073395E0,1.017485742E1
8.929066375E0,-1.989063721E0,4.620292053E0,8.665330353E0,1.001955205E1
8.939104375E0,-2.012714539E0,4.706213379E0,8.496032410E0,9.918771642E0
8.949142375E0,-2.041005707E0,4.846920776E0,8.497978363E0,9.993697092E0
8.959180375E0,-2.022144928E0,5.030439148E0,8.746611328E0,1.029065585E1
8.969219375E0,-1.893562317E0,5.118605804E0,9.120982819E0,1.062911244E1
8.979257375E0,-1.608105927E0,5.068460083E0,9.522747345E0,1.090678730E1
8.989295375E0,-1.318158875E0,4.944817200E0,9.819131012E0,1.107267329E1
8.999333375E0,-1.050066376E0,4.790338440E0,1.003573059E1,1.116986438E1
9.009372375E0,-8.616082764E-1,4.571493530E0,1.023137375E1,1.123930295E1
9.019410375E0,-6.683601379E-1,4.359683990E0,1.043405228E1,1.132797408E1
9.029448375E0,-3.591032410E-1,4.198618927E0,1.071980804E1,1.151831761E1
9.039486375E0,-6.780899048E-2,4.084107056E0,1.092982132E1,1.166814135E1
9.049525375E0,1.001417542E-1,4.014501801E0,1.098730179E1,1.169816454E1
9.059563375E0,1.315763855E-1,3.992347870E0,1.084854034E1,1.156057877E1
9.069601375E0,8.367599487E-2,3.921844482E0,1.040216858E1,1.111723783E1
9.079639375E0,-1.152603149E-2,3.842659149E0,9.798024902E0,1.052461183E1
9.089678375E0,-7.319778442E-2,3.707190857E0,9.276659088E0,9.990246534E0
9.099716375E0,-8.352630615E-2,3.518732758E0,9.046288147E0,9.706893741E0
9.109754375E0,-1.496887207E-4,3.333867188E0,9.085356903E0,9.677725999E0
9.119792375E0,5.658233643E-2,3.174748077E0,9.360335083E0,9.884234911E0
9.129831375E0,4.999603271E-2,3.101849670E0,9.611812134E0,1.010004473E1
9.139869375E0,3.906875610E-2,3.109184418E0,9.796977081E0,1.027858522E1
9.149907375E0,6.032455444E-2,3.113076324E0,9.800270233E0,1.028300442E1
9.159945375E0,1.118174744E-1,3.136128387E0,9.564809875E0,1.006644885E1
9.169984375E0,1.383123779E-1,3.179388428E0,9.199270020E0,9.734177417E0
9.180022375E0,1.255888367E-1,3.192411346E0,8.873996429E0,9.431599832E0
9.190060375E0,1.459465027E-1,3.173400879E0,8.654253387E0,9.218886875E0
9.200098375E0,1.431024170E-1,3.110082550E0,8.586444397E0,9.133461510E0
9.210137375E0,7.694000244E-2,3.066223755E0,8.631201324E0,9.159982761E0
9.220175375E0,-3.457809448E-2,3.049608307E0,8.721164246E0,9.239048234E0
9.230213375E0,-1.657054138E-1,3.074157257E0,8.796906738E0,9.320057365E0
9.240251375E0,-3.251239014E-1,3.117866364E0,8.780291290E0,9.323106315E0
9.250290375E0,-4.843927002E-1,3.089575195E0,8.670419769E0,9.217173653E0
9.260328375E0,-6.195616150E-1,3.073259125E0,8.544082489E0,9.101105637E0
9.270366375E0,-7.765850830E-1,3.146756287E0,8.416248322E0,9.018780146E0
9.280404375E0,-8.818162537E-1,3.268902283E0,8.280929718E0,8.946346686E0
9.290442375E0,-9.045689392E-1,3.404370575E0,8.159083099E0,8.886991673E0
9.300481375E0,-8.734336853E-1,3.550616455E0,7.933202820E0,8.735300258E0
9.310519375E0,-8.422984314E-1,3.637136536E0,7.704029388E0,8.560975274E0
9.320557375E0,-8.387059021E-1,3.718417511E0,7.467221832E0,8.383880860E0
9.330596375E0,-9.084608459E-1,3.792363739E0,7.268135834E0,8.248219343E0
9.340634375E0,-9.888436890E-1,3.871998138E0,7.145091705E0,8.186728095E0
9.350672375E0,-9.913883972E-1,3.883075104E0,7.040758667E0,8.101444675E0
9.360710375E0,-9.413923645E-1,3.802841949E0,7.020850067E0,8.039910580E0
9.370748375E0,-9.550140381E-1,3.802692261E0,7.168592834E0,8.170755379E0
9.380787375E0,-9.380992126E-1,3.865411835E0,7.428302765E0,8.426216277E0
9.390825375E0,-8.171507263E-1,3.843557281E0,7.619904327E0,8.573424628E0
9.400863375E0,-7.274871826E-1,3.723806305E0,7.718848572E0,8.600964729E0
9.410901375E0,-7.384144592E-1,3.680695953E0,7.781568146E0,8.639767440E0
9.420940375E0,-8.093669128E-1,3.647914124E0,7.765701141E0,8.617915436E0
9.430978375E0,-8.285270691E-1,3.525319061E0,7.686964874E0,8.497279598E0
9.441016375E0,-8.442443848E-1,3.461102600E0,7.619305573E0,8.411052086E0
9.451054375E0,-8.653504944E-1,3.502865753E0,7.605983276E0,8.418425124E0
9.461093375E0,-8.089178467E-1,3.538192291E0,7.635921021E0,8.454610730E0
9.471131375E0,-7.589218140E-1,3.597618713E0,7.752229156E0,8.579969675E0
9.481169375E0,-7.318281555E-1,3.736080780E0,8.013136597E0,8.871540462E0
9.491207375E0,-6.261479187E-1,3.832480316E0,8.350834351E0,9.209582018E0
9.501246375E0,-4.963677979E-1,3.828139343E0,8.607849884E0,9.433775037E0
9.511284375E0,-4.023632813E-1,3.810027008E0,8.816216583E0,9.612693528E0
9.521322375E0,-3.730242920E-1,3.846700745E0,8.961414642E0,9.759262581E0
9.531360375E0,-3.667373657E-1,3.865860901E0,8.946894836E0,9.753271452E0
9.541399375E0,-2.917433167E-1,3.881877594E0,8.728049927E0,9.556827054E0
9.551437375E0,-1.872605896E-1,3.932771759E0,8.359665985E0,9.240442393E0
9.561475375E0,-1.800755310E-1,4.099974060E0,7.956703949E0,8.952728758E0
9.571512750E0,-1.386117554E-1,4.278103638E0,7.594008179E0,8.717244070E0
9.581551750E0,1.122665405E-2,4.353247375E0,7.308551788E0,8.506810095E0
9.591589750E0,1.871109009E-1,4.352049866E0,7.087760925E0,8.319357154E0
9.601627750E0,3.396437073E-1,4.346511383E0,6.886579285E0,8.150613063E0
9.611665750E0,4.641847229E-1,4.304897919E0,6.676715698E0,7.957772682E0
9.621704750E0,4.653822327E-1,4.240980835E0,6.487958221E0,7.765056403E0
9.631742750E0,4.866380310E-1,4.156855774E0,6.268813934E0,7.537525764E0
9.641780750E0,4.409829712E-1,4.095782776E0,5.977519684E0,7.259520928E0
9.651818750E0,3.851490784E-1,4.016148376E0,5.658982086E0,6.949954377E0
9.661857750E0,4.367916870E-1,3.912713470E0,5.351222076E0,6.643469831E0
9.671895750E0,4.299060059E-1,3.842509460E0,5.024750977E0,6.340175116E0
9.681933750E0,3.600013733E-1,3.819307709E0,4.719385986E0,6.081884285E0
9.691971750E0,3.146456909E-1,3.820804596E0,4.408482513E0,5.842282751E0
9.702010750E0,4.255650330E-1,3.757486267E0,4.060306549E0,5.548504115E0
9.712048750E0,8.291258240E-1,3.424728241E0,3.639681244E0,5.065914795E0
9.722086750E0,1.270258484E0,3.063679047E0,3.361409912E0,4.722156553E0
9.732124750E0,1.588347015E0,2.910098419E0,3.386707306E0,4.739335969E0
9.742163750E0,1.806892548E0,2.915487213E0,3.822151794E0,5.135539963E0
9.752201750E0,1.841620331E0,2.908002777E0,4.738396454E0,5.856658309E0
9.762239750E0,1.940414886E0,2.706970825E0,6.032754822E0,6.891083494E0
9.772277750E0,1.799857178E0,2.021546173E0,7.441625061E0,7.918580576E0
9.782316750E0,1.334774323E0,1.078956299E0,8.976383514E0,9.138995031E0
9.792354750E0,6.432124329E-1,2.456391907E-1,1.052880524E1,1.055129379E1
9.802392750E0,-1.565744019E-1,-3.462300110E-1,1.173050629E1,1.173665917E1
9.812430750E0,-1.074765015E0,-3.879931641E-1,1.215517319E1,1.220876299E1
9.822469750E0,-2.136656799E0,2.697390747E-1,1.223884918E1,1.242688580E1
9.832507750E0,-2.934797058E0,9.527687073E-1,1.228255829E1,1.266420310E1
9.842545750E0,-3.183579712E0,1.123264160E0,1.229558121E1,1.275061643E1
9.852583750E0,-2.734663239E0,9.277706909E-1,1.214259933E1,1.248126036E1
9.862622750E0,-2.300565948E0,5.119354248E-2,1.205293579E1,1.227063510E1
9.872660750E0,-1.746717682E0,-9.806108093E-1,1.169517975E1,1.186548986E1
9.882698750E0,-1.661844177E0,-1.373843079E0,1.137334900E1,1.157593358E1
9.892736750E0,-1.660646667E0,-1.244062958E0,1.151196075E1,1.169746470E1
9.902775750E0,-1.319356384E0,-1.024469604E0,1.223705292E1,1.235053454E1
9.912813750E0,-8.059240723E-1,-9.714797974E-1,1.362481705E1,1.368316214E1
9.922851750E0,-7.741900635E-1,-1.367107086E0,1.476005630E1,1.484343674E1
9.932889750E0,-6.914122009E-1,-1.785037994E0,1.501632339E1,1.513784594E1
9.942928750E0,-3.079096985E-1,-2.139051819E0,1.489941650E1,1.505533006E1
9.952966750E0,-6.548881531E-1,-2.140997772E0,1.425815002E1,1.443286500E1
9.963004750E0,-7.385641479E-1,-1.831740875E0,1.289747955E1,1.304782474E1
9.973042750E0,-4.013154602E-1,-1.550026703E0,1.175745026E1,1.186597124E1
9.983081750E0,-6.460565186E-1,-9.572593689E-1,1.218106934E1,1.223569306E1
9.993119750E0,-1.235979767E0,4.848417664E-1,1.384306320E1,1.390658536E1
1.000315775E1,-1.173110504E0,1.090482330E0,1.505748779E1,1.514243305E1
1.001319575E1,-4.221221924E-1,5.939648438E-1,1.514430725E1,1.516182784E1
1.002323475E1,-8.936416626E-2,6.511459351E-2,1.516990402E1,1.517030698E1
1.003327275E1,6.738986206E-1,-1.209933929E0,1.403271881E1,1.410089631E1
1.004331075E1,1.805545349E0,-2.203417969E0,1.270453079E1,1.301999030E1
1.005334875E1,1.712139587E0,-1.324745178E0,1.297741333E1,1.315673320E1
1.006338775E1,1.472787323E0,2.098635864E-1,1.368963226E1,1.377022791E1
1.007342575E1,1.524280243E0,1.178648987E0,1.358095825E1,1.371696288E1
1.008346375E1,1.271006927E0,1.539099426E0,1.312710205E1,1.327799284E1
1.009350175E1,8.463400269E-1,1.689686279E0,1.236952744E1,1.251305479E1
1.010354075E1,1.708846436E0,1.803150330E0,1.138592285E1,1.165378679E1
1.011357875E1,9.801617432E-1,1.794618073E0,1.126018433E1,1.144434892E1
1.012361675E1,4.152365112E-1,1.262175293E0,1.086964645E1,1.095055806E1
1.013365475E1,7.033872986E-1,9.042695618E-1,1.049392776E1,1.055627667E1
1.014369375E1,1.036594391E0,7.291337585E-1,1.020607635E1,1.028446200E1
1.015373175E1,1.162781982E0,7.324269104E-1,9.786049805E0,9.882068705E0
1.016376975E1,1.283431091E0,7.981402588E-1,8.767567749E0,8.896879648E0
1.017380775E1,1.760938110E0,9.894424438E-1,7.403005371E0,7.673616351E0
1.018384675E1,2.434537354E0,1.292412415E0,6.088588715E0,6.683428350E0
1.019388475E1,2.677182770E0,1.266216888E0,4.777465210E0,5.620924001E0
1.020392275E1,3.003354492E0,1.408271484E0,4.656816101E0,5.717455988E0
1.021396075E1,3.504212952E0,1.427581329E0,2.860102386E0,4.743172201E0
1.022399975E1,4.242477722E0,9.340576172E-1,2.192341003E0,4.865946972E0
1.023403775E1,5.331912231E0,4.065545654E-1,3.592379608E0,6.442031194E0
1.024407575E1,6.391109619E0,6.289920044E-1,5.356461182E0,8.362630537E0
1.025411375E1,6.713090057E0,4.740641785E-1,6.401138763E0,9.287889558E0
1.026415175E1,5.740562439E0,-7.634124756E-2,6.414610748E0,8.608549016E0
1.027419075E1,5.026397552E0,-6.313870239E-1,5.914949799E0,7.787807975E0
1.028422875E1,4.799918518E0,-1.478475494E0,4.723277893E0,6.894524032E0
1.029426675E1,4.332141266E0,-2.284249878E0,3.635939026E0,6.099614582E0
1.030430475E1,4.525090027E0,-2.956950989E0,4.367767181E0,6.949632296E0
1.031434375E1,4.987478485E0,-3.522325287E0,5.223537598E0,8.035363221E0
1.032438175E1,4.858147430E0,-3.848796387E0,5.248685303E0,8.121793367E0
1.033441975E1,5.184618530E0,-4.229604492E0,5.032235413E0,8.372169176E0
1.034445775E1,6.498286743E0,-4.172573090E0,5.339995422E0,9.389017408E0
1.035449675E1,7.179520111E0,-3.809128876E0,5.897585907E0,1.004173747E1
1.036453475E1,7.749684448E0,-4.171824646E0,5.939648438E0,1.061796372E1
1.037457275E1,7.719896393E0,-4.517156525E0,5.927523651E0,1.073019292E1
1.038461075E1,7.581584015E0,-4.699477386E0,6.575526123E0,1.108165365E1
1.039464975E1,8.001460876E0,-4.803511047E0,7.736661530E0,1.212241833E1
1.040468775E1,8.639284515E0,-4.691394196E0,9.794582062E0,1.387732878E1
1.041472575E1,8.840166779E0,-4.864134979E0,1.104672821E1,1.496123531E1
1.042476375E1,8.829089813E0,-4.840035095E0,1.217882401E1,1.580197838E1
1.043480275E1,9.085057526E0,-4.936734009E0,1.283446060E1,1.648129218E1
1.044484075E1,9.485774231E0,-4.630321198E0,1.296708481E1,1.672019963E1
1.045487875E1,9.749376068E0,-3.886817322E0,1.282443146E1,1.657177494E1
1.046491675E1,9.882299652E0,-2.998564453E0,1.270827301E1,1.637533017E1
1.047495575E1,9.964179382E0,-2.387535095E0,1.303040314E1,1.657638684E1
1.048499375E1,9.781858521E0,-1.960622864E0,1.387898849E1,1.709254574E1
1.049503175E1,9.340576172E0,-1.711241455E0,1.501856873E1,1.776885244E1
1.050506975E1,8.573271790E0,-1.685944061E0,1.584739517E1,1.809650050E1
1.051510875E1,7.433242493E0,-1.920356598E0,1.591670105E1,1.767150915E1
1.052514675E1,6.172564087E0,-2.148332520E0,1.527648239E1,1.661585972E1
1.053518475E1,5.309758301E0,-2.251617737E0,1.419213730E1,1.531927142E1
1.054522275E1,4.834945679E0,-2.266436920E0,1.321017929E1,1.424858845E1
1.055526175E1,4.820425873E0,-2.045646057E0,1.245679596E1,1.351269547E1
1.056529975E1,5.194797363E0,-1.855391693E0,1.176688065E1,1.299568690E1
1.057533846E1,5.522316284E0,-1.855691071E0,1.124282043E1,1.266256600E1
1.058537646E1,5.720803528E0,-1.906435547E0,1.109807144E1,1.263049006E1
1.059541546E1,5.963598633E0,-1.989512787E0,1.125165207E1,1.288884572E1
1.060545346E1,6.099815369E0,-2.468516693E0,1.169443130E1,1.341868271E1
1.061549146E1,5.682483215E0,-3.089126129E0,1.190175018E1,1.354566252E1
1.062552946E1,4.750221863E0,-3.144361267E0,1.195189590E1,1.324006916E1
1.063556846E1,3.780238953E0,-2.965782623E0,1.204889420E1,1.297158142E1
1.064560646E1,2.971321106E0,-3.093167725E0,1.218570969E1,1.291851215E1
1.065564446E1,2.070494385E0,-3.106939087E0,1.221235428E1,1.277034121E1
1.066568246E1,7.590715027E-1,-3.662882996E0,1.121887024E1,1.182607081E1
1.067572146E1,-5.050497437E-1,-3.757486267E0,9.808054047E0,1.051530801E1
1.068575946E1,-2.173480225E0,-3.877536621E0,8.560997314E0,9.646241836E0
1.069579746E1,-3.278482361E0,-4.016747131E0,7.439080353E0,9.067668973E0
1.070583546E1,-3.821702728E0,-3.953578491E0,6.782096558E0,8.731152750E0
1.071587446E1,-3.847000122E0,-3.855083313E0,6.567442932E0,8.531845284E0
1.072591246E1,-3.590134277E0,-4.028422852E0,6.429729309E0,8.393966511E0
1.073595046E1,-3.235372009E0,-4.155508575E0,6.180497589E0,8.120002094E0
1.074598846E1,-2.218536530E0,-4.052822113E0,5.689668274E0,7.329365353E0
1.075602746E1,-4.087998962E-1,-3.720962219E0,4.738396454E0,6.038632142E0
1.076606546E1,1.600022736E0,-2.863096161E0,3.396886139E0,4.721888163E0
1.077610346E1,3.661685486E0,-1.438059540E0,1.870510254E0,4.356003265E0
1.078614146E1,5.054539032E0,2.249821472E-1,5.471122742E-1,5.089038576E0
1.079618046E1,5.809269562E0,1.479074249E0,-1.156195679E0,6.105084924E0
1.080621846E1,6.121969299E0,1.971550140E0,-3.432512054E0,7.290243964E0
1.081625646E1,6.539002075E0,1.727707214E0,-5.421725464E0,8.668253997E0
1.082629446E1,7.253017273E0,1.389859772E0,-6.396648102E0,9.770111396E0
1.083633346E1,7.414232025E0,1.391656036E0,-6.086044006E0,9.692650550E0
1.084637146E1,7.567213898E0,1.834285583E0,-4.888983307E0,9.193991927E0
1.085640946E1,8.606652374E0,2.592608643E0,-3.983366547E0,9.831749270E0
1.086644746E1,8.836424561E0,2.910846863E0,-2.665806427E0,9.677910538E0
1.087648646E1,8.773555298E0,2.935246124E0,-1.601070557E0,9.389055826E0
1.088652446E1,8.941655731E0,3.042273560E0,-7.168592834E-1,9.472197362E0
1.089656246E1,9.037306824E0,3.223097534E0,4.035607910E-1,9.603339714E0
1.090660046E1,9.113797760E0,3.198698273E0,1.476230164E0,9.770989497E0
1.091663946E1,9.439071350E0,3.076402588E0,2.721191254E0,1.029394009E1
1.092667746E1,1.002555176E1,3.243155823E0,4.296814728E0,1.137947119E1
1.093671546E1,1.086695206E1,3.569477234E0,5.990692291E0,1.291201800E1
1.094675346E1,1.135583542E1,3.727997589E0,7.436835022E0,1.407691299E1
1.095679246E1,1.128233826E1,3.646566925E0,8.714278564E0,1.471486520E1
1.096683046E1,1.136436768E1,3.412902832E0,9.719737701E0,1.533851555E1
1.097686846E1,1.134535721E1,3.333418121E0,1.061951660E1,1.589348733E1
1.098690646E1,1.078073135E1,3.326682129E0,1.147019760E1,1.608901537E1
1.099694546E1,1.035112473E1,3.065026245E0,1.206820404E1,1.619202636E1
1.100698346E1,1.007869125E1,2.895129547E0,1.240470428E1,1.624310564E1
1.101702146E1,9.955946503E0,3.111280060E0,1.236668335E1,1.617825057E1
1.102705946E1,9.603130188E0,3.419638824E0,1.172287216E1,1.553511412E1
1.103709846E1,9.058862000E0,3.536695404E0,1.050246002E1,1.431338051E1
1.104713646E1,8.353079681E0,3.427871704E0,9.092991028E0,1.281431740E1
1.105717446E1,7.760312347E0,2.818937988E0,7.632478180E0,1.124382418E1
1.106721246E1,7.036866760E0,2.157613220E0,6.457421722E0,9.791378039E0
1.107725146E1,6.018983459E0,2.089205475E0,5.592969360E0,8.477868109E0
1.108728946E1,5.826783142E0,1.873354340E0,5.204227753E0,8.033980630E0
1.109732746E1,5.870791626E0,1.526974640E0,5.031486969E0,7.881224967E0
1.110736546E1,5.260660400E0,1.204096069E0,4.689747620E0,7.149694254E0
1.111740446E1,3.997586975E0,1.552272034E-1,4.215683441E0,5.811779760E0
1.112744246E1,2.733016663E0,-1.233584747E0,3.349285126E0,4.495422367E0
1.113748046E1,2.244582367E0,-2.317181396E0,1.596130829E0,3.599321221E0
1.114751846E1,2.602937164E0,-3.075354767E0,-3.257226562E-1,4.042175661E0
1.115755746E1,3.122207336E0,-4.177812195E0,-1.920805664E0,5.558038124E0
1.116759546E1,3.902384949E0,-5.522016907E0,-2.841690674E0,7.334608707E0
1.117763346E1,4.681514740E0,-6.352938995E0,-2.644101562E0,8.322721142E0
1.118767146E1,5.248385925E0,-6.739884338E0,-1.705702972E0,8.710971148E0
1.119771046E1,5.679489441E0,-7.066505127E0,-6.840774536E-1,9.091757640E0
1.120774846E1,5.723497925E0,-7.668403473E0,2.380050659E-2,9.568876986E0
1.121778646E1,5.249284058E0,-8.473429413E0,4.610412598E-1,9.978303873E0
1.122782446E1,4.555177460E0,-9.117539978E0,8.430468750E-1,1.022692060E1
1.123786346E1,4.137545929E0,-9.698332214E0,1.108295288E0,1.060213434E1
1.124790146E1,4.175716553E0,-1.029993118E1,1.158590698E0,1.117441379E1
1.125793946E1,4.380191345E0,-1.079929276E1,9.104067993E-1,1.168929599E1
1.126797746E1,4.473447418E0,-1.119102814E1,6.222560120E-1,1.206805888E1
1.127801646E1,4.949008484E0,-1.144594803E1,6.378236389E-1,1.248636177E1
1.128805446E1,5.738616486E0,-1.141885437E1,1.347348175E0,1.285057592E1
1.129809246E1,6.308182068E0,-1.128682892E1,2.424059143E0,1.315529288E1
1.130813046E1,6.724167023E0,-1.124371857E1,3.365451508E0,1.352634072E1
1.131816946E1,6.833140411E0,-1.137394775E1,4.176464996E0,1.391047646E1
1.132820746E1,6.969357147E0,-1.143756546E1,4.636907501E0,1.417359354E1
1.133824546E1,7.317084045E0,-1.133218460E1,4.438569946E0,1.420067005E1
1.134828346E1,8.063581696E0,-1.134146530E1,3.918401642E0,1.445697259E1
1.135832246E1,9.824819183E0,-1.131631760E1,3.831731873E0,1.546829936E1
1.136836046E1,1.204545135E1,-1.086949677E1,4.338128815E0,1.679458901E1
1.137839846E1,1.495031067E1,-1.031445099E1,5.304070129E0,1.892175595E1
1.138843646E1,1.876707367E1,-9.226513367E0,6.127208405E0,2.179161045E1
1.139847546E1,2.327599731E1,-7.228468323E0,5.985303497E0,2.509674607E1
1.140851346E1,2.769645493E1,-4.760700073E0,4.860093384E0,2.851978942E1
1.141855146E1,3.069486969E1,-2.371368713E0,3.263962555E0,3.095887379E1
1.142858946E1,3.109019760E1,-7.575746155E-1,1.094523926E0,3.111868070E1
1.143862846E1,2.909200287E1,-4.867877197E-1,-1.094972992E0,2.911667150E1
1.144866646E1,2.588866425E1,-6.268963623E-1,-2.569706268E0,2.602343801E1
1.145870446E1,2.372072250E1,2.794688416E-1,-4.660258942E0,2.417578938E1
1.146874246E1,2.223850479E1,1.646126862E0,-8.078700256E0,2.371763535E1
1.147878146E1,2.152703430E1,1.999541931E0,-7.071444855E0,2.274679551E1
1.148881946E1,1.968152206E1,2.596500549E0,-6.661447449E0,2.093989035E1
1.149885746E1,1.673953995E1,1.759590912E0,-7.916737061E0,1.860062051E1
1.150889546E1,5.982010345E0,-2.064955902E0,-1.310884003E1,1.455644797E1
1.151893446E1,-1.000190094E1,-8.629105682E0,-2.066916824E1,2.452985942E1
1.152897246E1,-2.612367554E0,-3.645070038E0,-1.027762756E1,1.121341287E1
1.153901046E1,1.254616013E1,2.812800751E0,-7.232958984E-1,1.287793225E1
1.154904846E1,1.437640411E1,1.781445465E0,-2.950214996E0,1.478371779E1
1.155908746E1,1.175295959E1,1.915117493E0,-5.814808044E0,1.325185749E1
1.156912483E1,1.730745895E1,4.866829376E0,1.407223663E0,1.803370295E1
1.157916283E1,1.093266541E1,3.498225403E-1,2.140548706E-2,1.093828171E1
1.158920083E1,2.123633881E0,-2.483335876E-1,-6.661746826E0,6.996453473E0
1.159923983E1,3.211122437E0,2.257156219E0,-1.275796967E0,4.127192678E0
1.160927783E1,5.431604919E0,1.528770905E0,1.129551086E0,5.754594524E0
1.161931583E1,7.439679108E0,2.092498627E0,3.608396301E0,8.529237926E0
1.162935383E1,7.274123383E0,1.432221680E0,5.645360413E0,9.318488295E0
1.163939283E1,4.927752686E0,2.056723022E-1,3.422033844E0,6.002946215E0
1.164943083E1,4.134851532E0,-4.384382629E-1,2.181264038E0,4.695438010E0
1.165946883E1,4.298461304E0,-1.436113586E0,2.510279846E0,5.180800780E0
1.166950683E1,6.437213745E0,-2.465672607E0,2.602039032E0,7.368030221E0
1.167954483E1,9.566456451E0,-3.870501251E0,1.966760101E0,1.050552304E1
1.168958383E1,1.160641434E1,-3.316952362E0,1.691632233E0,1.218903796E1
1.169962183E1,1.249631378E1,-4.208947449E0,4.779560852E-1,1.319475421E1
1.170965983E1,1.155013138E1,-5.205724640E0,-1.486708374E0,1.275599489E1
1.171969783E1,8.441545715E0,-4.871619415E0,-3.434008942E0,1.033367249E1
1.172973683E1,5.568719788E0,-3.979324951E0,-2.611918488E0,7.325830009E0
1.173977483E1,6.370751953E0,-4.893623657E0,2.710263977E0,8.478181631E0
1.174981283E1,5.240153046E0,-7.030729523E0,4.402944031E0,9.812047579E0
1.175985083E1,3.384761353E0,-8.127349091E0,2.489473114E0,9.149201552E0
1.176988983E1,4.357588348E0,-9.443412323E0,-7.717950439E-1,1.042891558E1
1.177992783E1,5.512885895E0,-9.961035919E0,-4.061054993E0,1.208744452E1
1.178996583E1,7.919880524E0,-1.039573196E1,-4.872517548E0,1.394765851E1
1.180000383E1,9.512119446E0,-1.106873245E1,-3.812272339E0,1.508411996E1
1.181004283E1,1.050979477E1,-1.246682510E1,-3.808979187E0,1.674472564E1
1.182008083E1,1.145777344E1,-1.352078339E1,-3.463347931E0,1.805787735E1
1.183011883E1,1.386222336E1,-1.414229095E1,-3.572171631E0,2.012277416E1
1.184015683E1,1.533186722E1,-1.347527802E1,-2.553689575E0,2.057111082E1
1.185019583E1,1.577045517E1,-1.199515594E1,-1.241667938E0,1.985277718E1
1.186023383E1,1.460527817E1,-1.151974457E1,-9.147477722E-1,1.862405511E1
1.187027183E1,1.212044540E1,-7.459737396E0,-1.305734711E0,1.429187958E1
1.188030983E1,1.038285873E1,-5.236859894E0,-1.239871674E0,1.169468849E1
1.189034883E1,9.566755829E0,-4.155957642E0,-1.435365143E0,1.052877363E1
1.190038683E1,8.913514252E0,-3.728596344E0,-1.287921753E0,9.747405268E0
1.191042483E1,8.376281433E0,-3.402873688E0,-1.217717743E0,9.122745008E0
1.192046283E1,7.535030823E0,-3.023113403E0,-1.279090118E0,8.219000893E0
1.193050183E1,5.947282562E0,-2.964435425E0,-1.647474060E0,6.846328800E0
1.194053983E1,4.618495789E0,-3.503614197E0,-1.326242065E0,5.946825523E0
1.195057783E1,2.982398071E0,-3.402125244E0,-1.008602600E0,4.635346118E0
1.196061583E1,1.188528442E0,-3.193758545E0,7.334747314E-3,3.407748127E0
1.197065483E1,3.872447205E-1,-2.660417633E0,2.778222656E-1,2.702769999E0
1.198069283E1,3.594026184E-1,-2.055375824E0,-2.215393066E-2,2.086679376E0
1.199073083E1,2.667453003E-1,-1.769021301E0,-4.593946838E-1,1.847060609E0
1.200076883E1,2.002835083E-1,-1.546284485E0,-3.719764709E-1,1.602958417E0
1.201080783E1,1.534309387E-1,-1.494492188E0,-2.436932373E-1,1.521983688E0
1.202084583E1,4.676275635E-1,-1.623673553E0,2.076182556E-1,1.702379713E0
1.203088383E1,9.074130249E-1,-2.811303864E0,1.052162018E0,3.135900624E0
1.204092183E1,1.166673889E0,-7.335495758E0,1.619631958E0,7.602225573E0
1.205096083E1,4.007167053E-1,-1.040276733E1,1.918710022E0,1.058582024E1
1.206099883E1,5.676196289E-1,-1.183498901E1,2.991080017E0,1.222029937E1
1.207103683E1,1.101559296E0,-1.424467804E1,3.964356079E0,1.482701603E1
1.208107483E1,7.140151978E-1,-1.720237747E1,5.792055359E0,1.816533825E1
1.209111383E1,-1.050665131E0,-2.062081879E1,6.090085602E0,2.152698788E1
1.210115183E1,-3.088078308E0,-2.163930084E1,3.722459106E0,2.217323320E1
1.211118983E1,-5.076692963E0,-2.006008484E1,6.562353516E-1,2.070290946E1
1.212122783E1,-5.874384155E0,-1.582688782E1,-1.306034088E0,1.693235046E1
1.213126683E1,-4.479135590E0,-1.135658386E1,-1.884580994E0,1.235258265E1
1.214130483E1,-2.923570404E0,-8.354127502E0,-2.351011047E0,9.157836163E0
1.215134283E1,-1.987417145E0,-6.413113861E0,-4.159699860E0,7.898161762E0
1.216138083E1,-1.286724243E0,-5.522915039E0,-9.094188538E0,1.071739310E1
1.217141983E1,-2.252815247E-1,-6.582112427E0,-1.482367401E1,1.622085901E1
1.218145783E1,7.306306458E-1,-8.127349091E0,-1.555280777E1,1.756352624E1
1.219149583E1,3.534749451E0,-9.118587799E0,-1.750968842E1,2.005572949E1
1.220153383E1,5.889652405E0,-1.039977356E1,-1.662667465E1,2.047656235E1
1.221157283E1,4.957241364E0,-1.208002945E1,-1.249481689E1,1.807268111E1
1.222161083E1,3.136876831E0,-1.389261017E1,-9.770781555E0,1.727173372E1
1.223164883E1,2.000589752E0,-1.450229233E1,-7.363188171E0,1.638704922E1
1.224168783E1,2.641107788E0,-1.294987061E1,-4.962779846E0,1.411749917E1
1.225172583E1,4.343966675E0,-9.117090912E0,-4.268523560E0,1.096410902E1
1.226176383E1,3.824546814E0,-5.646258545E0,-4.934488678E0,8.417634608E0
1.227180183E1,2.503543854E0,-3.548371124E0,-5.130730591E0,6.721835007E0
1.228183983E1,2.862048340E0,-2.918930054E0,-3.961661682E0,5.692647595E0
1.229187883E1,4.756359100E0,-4.841531982E0,-1.628463593E0,6.979633049E0
1.230191683E1,6.771768036E0,-8.901539154E0,5.939648438E-1,1.120031410E1
1.231195483E1,7.368576965E0,-1.341285782E1,2.600691833E0,1.552302417E1
1.232199383E1,7.028184814E0,-1.740296036E1,2.089654541E0,1.888451924E1
1.233203183E1,7.100334778E0,-2.053938812E1,-5.688171387E0,2.246411610E1
1.234206983E1,6.600374451E0,-1.998928207E1,-1.593137054E1,2.639971417E1
1.235210783E1,3.125949554E0,-1.393557083E1,-5.374423828E0,1.525962406E1
1.236214683E1,-1.625469818E0,-7.706723785E0,9.932894440E0,1.267667684E1
1.237218483E1,-4.260290680E0,-3.676354980E0,1.227582230E1,1.350412810E1
1.238222283E1,-6.077212372E0,-2.400558014E0,6.491251373E0,9.210403541E0
1.239226083E1,-7.341333618E0,-2.816992035E0,1.405726776E0,7.987909062E0
1.240229983E1,-7.477849731E0,-4.608616333E0,-2.120640106E0,9.036298776E0
1.241233783E1,-5.571713562E0,-6.774612122E0,-3.566932526E0,9.469021547E0
1.242237583E1,-2.106868744E0,-8.468789062E0,-2.392923889E0,9.049053477E0
1.243241383E1,-2.516267395E-1,-9.708061981E0,2.636018372E-1,9.714899350E0
1.244245283E1,3.192860413E-1,-1.096679443E1,1.434467010E0,1.106481899E1
1.245249083E1,5.610333252E-1,-1.193752579E1,1.549577637E0,1.205074567E1
1.246252883E1,5.366340637E-1,-1.239497452E1,1.827250214E0,1.254042315E1
1.247256683E1,3.110531616E-1,-1.224289078E1,2.198328552E0,1.244257920E1
1.248260583E1,2.523751831E-1,-1.177062286E1,2.554438019E0,1.204725734E1
1.249264383E1,5.192701721E-1,-1.119357285E1,2.606679382E0,1.150480300E1
1.250268183E1,6.640191650E-1,-1.060649368E1,2.446961517E0,1.090533128E1
1.251271983E1,7.493417358E-1,-1.008138565E1,2.268532562E0,1.036060277E1
1.252275883E1,1.053808594E0,-9.787397003E0,2.095642090E0,1.006456002E1
1.253279683E1,1.899549866E0,-9.709409180E0,1.991907806E0,1.009200738E1
1.254283483E1,2.532433777E0,-9.751172333E0,1.754800873E0,1.022633408E1
1.255287283E1,2.513123932E0,-9.798174591E0,1.522783356E0,1.022931505E1
1.256291183E1,2.344275055E0,-9.675878906E0,1.407972107E0,1.005488158E1
1.257295021E1,2.454296265E0,-9.369615784E0,1.366807709E0,9.781688678E0
1.258298821E1,2.956950989E0,-8.985664215E0,2.319726105E0,9.739961485E0
1.259302621E1,3.937112732E0,-8.589887238E0,3.078797607E0,9.938109183E0
1.260306521E1,5.257067871E0,-8.558751984E0,1.790277100E0,1.020265114E1
1.261310321E1,6.059549103E0,-8.791667633E0,6.762936401E-1,1.069901529E1
1.262314121E1,6.273304596E0,-8.945847015E0,3.177891541E-1,1.093085172E1
1.263317921E1,6.283782806E0,-9.172475739E0,4.933740234E-1,1.112940499E1
1.264321821E1,7.177873535E0,-9.117989044E0,-1.284628601E0,1.167518151E1
1.265325621E1,8.137527924E0,-8.754245453E0,-3.712729340E0,1.251561158E1
1.266329421E1,7.821984100E0,-8.443791046E0,-3.796105957E0,1.211987883E1
1.267333221E1,6.708599396E0,-8.274493103E0,-2.844085693E0,1.102548708E1
1.268337121E1,5.385051727E0,-8.029302979E0,-1.857337646E0,9.844703731E0
1.269340921E1,4.144431610E0,-7.766748962E0,-9.367520142E-1,8.853033782E0
1.270344721E1,3.307971039E0,-7.686515808E0,-1.899549866E-1,8.370261678E0
1.271348521E1,2.812950439E0,-7.792794800E0,2.457888794E-1,8.288591746E0
1.272352421E1,2.405497742E0,-8.003855896E0,4.155358887E-1,8.367843131E0
1.273356221E1,1.953288116E0,-8.308173065E0,5.800437927E-1,8.554386299E0
1.274360021E1,1.512005768E0,-8.713679810E0,7.131170654E-1,8.872593376E0
1.275363821E1,1.274898834E0,-9.211095428E0,5.918692017E-1,9.317722639E0
1.276367721E1,1.130000153E0,-9.822573853E0,-9.370513916E-2,9.887802490E0
1.277371521E1,1.059646454E0,-1.041070084E1,-1.576222229E0,1.058253368E1
1.278375321E1,9.565109253E-1,-1.061427750E1,-3.361858978E0,1.117496737E1
1.279379121E1,9.687854004E-1,-1.025277924E1,-4.202810211E0,1.112302301E1
1.280383021E1,1.677262115E0,-9.766889648E0,-3.285817108E0,1.044039921E1
1.281386821E1,3.384611664E0,-9.444310455E0,-1.161135406E0,1.009944709E1
1.282390621E1,4.773573303E0,-9.383387146E0,6.453080750E-1,1.054757692E1
1.283394421E1,5.427263947E0,-9.326954498E0,1.431024170E0,1.088554566E1
1.284398321E1,5.257367249E0,-9.340127106E0,2.596949615E0,1.102823794E1
1.285402121E1,4.947511597E0,-9.528435516E0,3.642525330E0,1.133741351E1
1.286405921E1,4.988226929E0,-9.806557159E0,3.033142548E0,1.141275273E1
1.287409721E1,5.086123352E0,-1.020892044E1,2.467169495E0,1.166951724E1
1.288413621E1,5.013973389E0,-1.060888870E1,2.288141785E0,1.195508434E1
1.289417421E1,4.694837036E0,-1.097622482E1,1.958976288E0,1.209779295E1
1.290421221E1,3.890260162E0,-1.122560623E1,2.207908630E-1,1.188263893E1
1.291425021E1,3.054248657E0,-1.128144012E1,-3.321892090E0,1.215048531E1
1.292428921E1,3.063978424E0,-1.168544998E1,-5.776487732E0,1.339050095E1
1.293432721E1,4.199816437E0,-1.267279678E1,-5.067861328E0,1.428010696E1
1.294436521E1,6.112538910E0,-1.341315720E1,-1.780547333E0,1.484743300E1
1.295440421E1,6.855593719E0,-1.348306183E1,-2.436932373E-1,1.512783884E1
1.296444221E1,6.651418304E0,-1.335373077E1,-4.263134766E-1,1.492465190E1
1.297448021E1,5.560337219E0,-1.297606613E1,-1.430275726E0,1.418947959E1
1.298451821E1,3.278332672E0,-1.210293182E1,-3.803590393E0,1.310327149E1
1.299455721E1,1.517544250E0,-1.153950348E1,-6.635850677E0,1.339767126E1
1.300459521E1,3.912863159E-1,-1.126946503E1,-5.024002533E0,1.234481869E1
1.301463321E1,4.418811035E-1,-1.130464188E1,-1.270108795E0,1.138434729E1
1.302467121E1,1.584305420E0,-1.137529495E1,1.218316498E0,1.154953047E1
1.303471021E1,3.052751770E0,-1.159069702E1,2.297572174E0,1.220419554E1
1.304474821E1,3.825594635E0,-1.214274902E1,2.632425842E0,1.300043053E1
1.305478621E1,3.696712646E0,-1.269195694E1,2.663261719E0,1.348497009E1
1.306482421E1,3.405119019E0,-1.350057541E1,2.418071594E0,1.413178836E1
1.307486321E1,2.932402039E0,-1.424258240E1,1.968556366E0,1.467396842E1
1.308490121E1,2.504142609E0,-1.459884155E1,1.511257324E0,1.488894904E1
1.309493921E1,2.182311859E0,-1.450139420E1,1.285676422E0,1.472093348E1
1.310497721E1,1.721569977E0,-1.382854340E1,1.292262726E0,1.399508337E1
1.311501621E1,1.298849030E0,-1.283026932E1,9.114546204E-1,1.292801489E1
1.312505421E1,1.364562378E0,-1.197928894E1,-1.339714050E-1,1.205750150E1
1.313509221E1,1.964365082E0,-1.105466171E1,-1.084195404E0,1.128006008E1
1.314513021E1,2.185605011E0,-1.031025970E1,-1.318308563E0,1.062149998E1
1.315516921E1,2.138902130E0,-9.986483002E0,-1.174607391E0,1.028029414E1
1.316520721E1,1.763333130E0,-9.477241974E0,-6.155200195E-1,9.659519867E0
1.317524521E1,1.977537689E0,-8.946296082E0,-2.460882568E-1,9.165556629E0
1.318528321E1,2.292033691E0,-8.507558441E0,-2.499801636E-2,8.810936044E0
1.319532221E1,2.389331360E0,-8.236771545E0,5.245092773E-1,8.592346584E0
1.320536021E1,2.342029724E0,-7.908803558E0,9.274713135E-1,8.300269875E0
1.321539821E1,2.070644073E0,-7.559579773E0,1.019978943E0,7.904123624E0
1.322543721E1,1.967358856E0,-7.279811554E0,1.030457153E0,7.611044546E0
1.323547521E1,2.117496643E0,-6.929240570E0,8.107141113E-1,7.290776658E0
1.324551321E1,1.985471191E0,-6.434369659E0,7.102729797E-1,6.771092709E0
1.325555121E1,1.654060364E0,-6.081852722E0,1.077609100E0,6.394223142E0
1.326559021E1,9.801617432E-1,-5.690865784E0,1.405128021E0,5.943151956E0
1.327562821E1,2.883004761E-1,-5.386548615E0,1.595981140E0,5.625404780E0
1.328566621E1,-1.297801208E-1,-5.029840393E0,1.641935577E0,5.292644868E0
1.329570421E1,-5.002597046E-1,-4.714446259E0,1.562600555E0,4.991791642E0
1.330574321E1,-8.120613098E-1,-4.388424225E0,1.527423706E0,4.717068361E0
1.331578121E1,-1.072669373E0,-4.105961609E0,1.309177551E0,4.441113169E0
1.332581921E1,-1.324146423E0,-3.869004364E0,1.014590149E0,4.213306503E0
1.333585721E1,-1.492246857E0,-3.778592377E0,6.256988525E-1,4.110481734E0
1.334589621E1,-1.462608490E0,-3.814367981E0,7.304809570E-2,4.085824606E0
1.335593421E1,-1.209484863E0,-3.954626312E0,-6.622229004E-1,4.188133483E0
1.336597221E1,-8.265811157E-1,-4.205205231E0,-1.662742310E0,4.596922814E0
1.337601021E1,-2.948867798E-1,-4.704866180E0,-2.761158142E0,5.463215013E0
1.338604921E1,4.417314148E-1,-5.854774933E0,-4.290827179E0,7.272187706E0
1.339608721E1,2.397713928E0,-7.435338135E0,-7.251370697E0,1.065906479E1
1.340612521E1,5.791606293E0,-8.658294983E0,-1.087174210E1,1.505667798E1
1.341616321E1,9.488618317E0,-9.542057190E0,-1.524295212E1,2.033303524E1
1.342620221E1,1.213571365E1,-1.069630692E1,-1.948827393E1,2.532744259E1
1.343624021E1,1.360685440E1,-1.224558517E1,-2.032428543E1,2.735283205E1
1.344627821E1,1.428943497E1,-1.392060196E1,-1.551493652E1,2.527220540E1
1.345631721E1,1.318592972E1,-1.541180099E1,-9.357041931E0,2.233711231E1
1.346635521E1,1.167227737E1,-1.466859650E1,-6.560856628E0,1.986088170E1
1.347639321E1,1.105990082E1,-1.016685791E1,-6.130800934E0,1.622569339E1
1.348643121E1,8.807235260E0,-5.121150513E0,-5.673801270E0,1.166128622E1
1.349647021E1,5.234015808E0,-1.963317261E0,-4.946463776E0,7.464384772E0
1.350650821E1,2.145937500E0,-1.262774048E0,-2.778971100E0,3.731263382E0
1.351654621E1,5.674699402E-1,-3.888613586E0,1.610800323E0,4.247118487E0
1.352658421E1,1.823208618E-1,-7.448211365E0,5.231321411E0,9.103615608E0
1.353662321E1,6.830296326E-1,-1.051727921E1,7.547305298E0,1.296308253E1
1.354666121E1,1.914668427E0,-1.227133163E1,7.656128998E0,1.458999131E1
1.355669921E1,4.023932190E0,-1.588391922E1,-2.805765381E0,1.662417635E1
1.356673721E1,7.324119415E0,-2.197011292E1,-2.478485962E1,3.392075844E1
1.357677575E1,4.619393921E0,-2.088097778E1,-1.354263794E1,2.531317988E1
1.358681375E1,-6.538403320E-1,-1.410726379E1,3.519032135E0,1.455424289E1
1.359685175E1,-3.748055878E0,-7.796537018E0,1.083087708E1,1.386152266E1
1.360688975E1,-4.262086945E0,-5.433550873E0,8.819060669E0,1.120110224E1
1.361692875E1,-3.885619812E0,-6.081553345E0,4.294419708E0,8.397938618E0
1.362696675E1,-2.923869781E0,-7.040010223E0,1.143322449E0,7.708303618E0
1.363700475E1,-1.703158264E0,-7.800578613E0,-5.376818848E-1,8.002429418E0
1.364704275E1,-3.625460815E-1,-8.776100006E0,-2.591111755E-1,8.787406306E0
1.365708175E1,3.676354980E-1,-9.843380585E0,5.703140259E-2,9.850408610E0
1.366711975E1,7.294331360E-1,-1.047521667E1,1.164578247E-1,1.050122848E1
1.367715775E1,8.117619324E-1,-1.084569626E1,6.444099426E-1,1.089510665E1
1.368719575E1,7.161108398E-1,-1.104642883E1,1.310075684E0,1.114686965E1
1.369723475E1,6.833290100E-1,-1.092742630E1,1.983974304E0,1.112707231E1
1.370727275E1,8.942404175E-1,-1.065050217E1,2.551144867E0,1.098823018E1
1.371731075E1,1.313368835E0,-1.039019348E1,2.900368652E0,1.086706937E1
1.372734875E1,1.616787872E0,-1.016251694E1,2.895578613E0,1.068995459E1
1.373738775E1,1.949845276E0,-9.930499420E0,2.604583740E0,1.044990774E1
1.374742575E1,2.189945984E0,-9.710457001E0,2.228865051E0,1.020081752E1
1.375746375E1,2.422562256E0,-9.574689331E0,1.911974030E0,1.005977775E1
1.376750175E1,2.671195221E0,-9.452992401E0,1.748813324E0,9.977609798E0
1.377754075E1,3.002905426E0,-9.217082977E0,1.680704956E0,9.838537938E0
1.378757875E1,3.294499054E0,-8.931177521E0,1.651815033E0,9.661684575E0
1.379761675E1,3.476969604E0,-8.624315643E0,1.827848969E0,9.476770009E0
1.380765575E1,3.532953186E0,-8.297994232E0,3.057990875E0,9.523117908E0
1.381769375E1,3.873045959E0,-8.250991974E0,3.009192352E0,9.598676584E0
1.382773175E1,4.686005402E0,-8.608897705E0,1.274449768E0,9.884128112E0
1.383776975E1,5.325176239E0,-8.919352112E0,2.136058044E-1,1.039028255E1
1.384780875E1,5.641468506E0,-9.061406708E0,-8.957373047E-1,1.071156402E1
1.385784675E1,7.325616302E0,-8.702453156E0,-7.295379181E0,1.351369315E1
1.386788475E1,8.364605713E0,-8.556656342E0,-7.555837555E0,1.415180828E1
1.387792275E1,7.689210205E0,-8.693920898E0,-2.828368378E0,1.194604043E1
1.388796175E1,7.169191589E0,-8.663384399E0,-8.033793640E-1,1.127372856E1
1.389799975E1,6.704857178E0,-8.509354706E0,3.876937866E-2,1.083354653E1
1.390803775E1,5.935457153E0,-8.277486877E0,2.591111755E-1,1.018889490E1
1.391807575E1,4.946014709E0,-7.791447601E0,1.243913269E-1,9.229582354E0
1.392811475E1,4.067491608E0,-7.286397858E0,-1.077758789E-2,8.344830608E0
1.393815275E1,3.312910767E0,-6.943161621E0,-2.698887634E-1,7.697773119E0
1.394819075E1,2.935246124E0,-7.104076996E0,-5.751040649E-1,7.708068789E0
1.395822875E1,3.471131744E0,-7.718100128E0,-4.248165894E-1,8.473387416E0
1.396826775E1,4.221371613E0,-8.095166016E0,3.137475586E-1,9.135104194E0
1.397830575E1,4.302353210E0,-8.201594696E0,9.178912354E-1,9.306928764E0
1.398834375E1,4.035907288E0,-8.319100342E0,9.975256348E-1,9.300055673E0
1.399838175E1,3.683390350E0,-8.452023926E0,6.798861694E-1,9.244799517E0
1.400842075E1,3.296145630E0,-8.570876770E0,-6.870712280E-2,9.183094538E0
1.401845875E1,3.001558228E0,-8.656199341E0,-1.063238983E0,9.223319140E0
1.402849675E1,2.965034180E0,-8.672365723E0,-1.573228455E0,9.299268933E0
1.403853575E1,3.740721130E0,-8.631650391E0,-9.678872681E-1,9.457017966E0
1.404857375E1,5.002147980E0,-8.498427429E0,1.477427673E-1,9.862382121E0
1.405861175E1,5.725144501E0,-8.393196259E0,9.966275024E-1,1.020863798E1
1.406864975E1,5.935606842E0,-8.625513153E0,1.462009735E0,1.057205648E1
1.407868875E1,5.931565247E0,-8.956923981E0,1.909878387E0,1.091135138E1
1.408872675E1,5.996979218E0,-9.519005127E0,2.279459839E0,1.147916179E1
1.409876475E1,6.102809143E0,-1.007614655E1,2.371967468E0,1.201662342E1
1.410880275E1,6.023174744E0,-1.042761566E1,2.211501160E0,1.224355095E1
1.411884175E1,5.885610809E0,-1.055919205E1,1.531465302E0,1.218533287E1
1.412887975E1,5.666167145E0,-1.060769119E1,-2.993774414E-1,1.202988734E1
1.413891775E1,5.635331268E0,-1.063942520E1,-3.554807739E0,1.255352481E1
1.414895575E1,6.528823242E0,-1.060828995E1,-4.744683380E0,1.332941743E1
1.415899475E1,8.347092133E0,-1.077953384E1,-1.087189178E0,1.367677876E1
1.416903275E1,9.102421417E0,-1.116318604E1,6.581813049E-1,1.441887654E1
1.417907075E1,8.832083588E0,-1.149848877E1,5.516029358E-1,1.450948691E1
1.418910875E1,7.948022003E0,-1.159309204E1,-6.222560120E-1,1.406975619E1
1.419914775E1,6.018684082E0,-1.137200180E1,-3.811224518E0,1.341910635E1
1.420918575E1,4.337080994E0,-1.122081619E1,-6.590345306E0,1.371676488E1
1.421922375E1,3.367996216E0,-1.139505386E1,-6.059249725E0,1.333810925E1
1.422926175E1,2.819985809E0,-1.169038971E1,-3.662733307E0,1.257112353E1
1.423930075E1,2.815794525E0,-1.206416245E1,-1.185834045E0,1.244503583E1
1.424933875E1,3.176544342E0,-1.233704498E1,9.892927551E-1,1.277778592E1
1.425937675E1,3.742218018E0,-1.248254242E1,1.911524963E0,1.317087653E1
1.426941475E1,4.333189087E0,-1.246547791E1,2.453996887E0,1.342336649E1
1.427945375E1,4.391717377E0,-1.260169464E1,2.577490082E0,1.359166452E1
1.428949175E1,3.996988220E0,-1.289283920E1,2.445614319E0,1.371795345E1
1.429952975E1,3.474873962E0,-1.316856583E1,2.073338470E0,1.377623343E1
1.430956775E1,3.006348267E0,-1.334025879E1,1.337618408E0,1.374008215E1
1.431960675E1,2.621199188E0,-1.334968918E1,5.505551147E-1,1.361572610E1
1.432964475E1,2.367177429E0,-1.297861084E1,-5.014572144E-2,1.319281558E1
1.433968275E1,2.433339844E0,-1.243374390E1,-3.845503235E-1,1.267544907E1
1.434972175E1,2.564317474E0,-1.179876434E1,-4.796026611E-1,1.208373216E1
1.435975975E1,2.664758606E0,-1.120435043E1,-3.285667419E-1,1.152156080E1
1.436979775E1,2.414628754E0,-1.048928741E1,-2.621049500E-1,1.076681390E1
1.437983575E1,2.080673218E0,-9.959239655E0,-2.170486450E-2,1.017428752E1
1.438987475E1,1.693129120E0,-9.565109253E0,3.309617615E-1,9.719441184E0
1.439991275E1,1.649120636E0,-9.158404999E0,5.251080322E-1,9.320499957E0
1.440995075E1,1.666484528E0,-8.624016266E0,4.541555786E-1,8.795287632E0
1.441998875E1,1.864373016E0,-8.236322479E0,5.653742981E-1,8.463601055E0
1.443002775E1,2.036065979E0,-7.858358459E0,6.559359741E-1,8.144299500E0
1.444006575E1,1.954934692E0,-7.600594482E0,1.018032990E0,7.913734725E0
1.445010375E1,2.039508820E0,-7.294930115E0,1.446142731E0,7.711480429E0
1.446014175E1,2.305206299E0,-6.970255280E0,1.533860321E0,7.500077481E0
1.447018075E1,2.410886536E0,-6.771019592E0,1.382375336E0,7.319155810E0
1.448021875E1,2.202519836E0,-6.609804840E0,1.437909851E0,7.113943941E0
1.449025675E1,1.520238647E0,-6.386169891E0,1.558858337E0,6.747172055E0
1.450029475E1,4.782554626E-1,-6.111191711E0,1.643881531E0,6.346474526E0
1.451033375E1,-3.704795837E-1,-5.730233917E0,1.759740601E0,6.005790776E0
1.452037175E1,-9.530680847E-1,-5.323978729E0,1.827699280E0,5.709078117E0
1.453040975E1,-1.247056732E0,-4.909041595E0,1.767075348E0,5.364363444E0
1.454044775E1,-1.332678680E0,-4.519850922E0,1.560355225E0,4.963848632E0
1.455048675E1,-1.438957672E0,-4.193230133E0,1.133592682E0,4.575894503E0
1.456052475E1,-1.498533783E0,-4.001329193E0,4.951702881E-1,4.301329146E0
1.457056275E1,-1.449136505E0,-4.004023590E0,-1.290316772E-1,4.260146793E0
1.458060171E1,-1.256038055E0,-4.181404724E0,-9.030720520E-1,4.458398389E0
1.459063971E1,-7.277865601E-1,-4.537963257E0,-1.757644958E0,4.920579193E0
1.460067771E1,-7.229965210E-2,-5.200335846E0,-2.840343475E0,5.925898346E0
1.461071571E1,9.181906128E-1,-6.435118103E0,-4.838388519E0,8.103321693E0
1.462075471E1,2.762505341E0,-7.929161224E0,-8.213120728E0,1.174556876E1
1.463079271E1,4.896318054E0,-9.550140381E0,-1.038300842E1,1.493271495E1
1.464083071E1,7.730973358E0,-1.076905563E1,-1.115570160E1,1.732599742E1
1.465086871E1,1.080842377E1,-1.122395966E1,-1.322709412E1,2.043906342E1
1.466090771E1,1.297262329E1,-1.109388016E1,-1.709699661E1,2.415927203E1
1.467094571E1,1.415980453E1,-1.140238861E1,-1.749142639E1,2.522824861E1
1.468098371E1,1.443897400E1,-1.202494400E1,-1.049407745E1,2.152228868E1
1.469102171E1,1.424123520E1,-1.223450821E1,-6.070476379E0,1.973186901E1
1.470106071E1,1.343306580E1,-1.022867935E1,-5.958509216E0,1.790466336E1
1.471109871E1,1.199201248E1,-6.254294128E0,-5.715115356E0,1.468288466E1
1.472113671E1,1.016610947E1,-2.425705719E0,-5.054688721E0,1.160963858E1
1.473117471E1,8.341553650E0,2.106120300E-1,-3.394341431E0,9.008186747E0
1.474121371E1,7.411387939E0,5.605842590E-1,1.019380188E-1,7.433257513E0
1.475125171E1,7.004833374E0,-2.266586609E0,3.760779419E0,8.267319232E0
1.476128971E1,5.719306641E0,-6.226452026E0,6.128854980E0,1.044231951E1
1.477132771E1,4.181255035E0,-1.063792831E1,8.443791046E0,1.421077126E1
1.478136671E1,3.509601746E0,-1.354907455E1,8.364006958E0,1.630494827E1
1.479140471E1,6.710245972E0,-1.919982376E1,-1.321751404E1,2.425620149E1
1.480144271E1,8.929680634E0,-2.509306870E1,-2.768672516E1,3.841817334E1
1.481148071E1,2.577939148E0,-2.018238052E1,-1.025667114E0,2.037219298E1
1.482151971E1,-4.273313599E0,-1.304776703E1,1.208841202E1,1.829303525E1
1.483155771E1,-8.358917542E0,-7.920928345E0,9.425000610E0,1.488096922E1
1.484159571E1,-8.695866852E0,-6.729855194E0,2.488275604E0,1.127388871E1
1.485163471E1,-8.029003601E0,-7.570806427E0,-2.446512451E0,1.130342567E1
1.486167271E1,-5.777834930E0,-8.245154114E0,-1.692081299E0,1.020926452E1
1.487171071E1,-3.113525391E0,-9.141789551E0,1.093476105E0,9.719158736E0
1.488174871E1,-1.239123230E0,-9.877060547E0,9.548643494E-1,1.000017587E1
1.489178771E1,-3.773652649E-1,-1.036324951E1,9.735754395E-1,1.041571861E1
1.490182571E1,-3.266207886E-1,-1.078267731E1,1.887574768E0,1.095151814E1
1.491186371E1,-4.846920776E-1,-1.103175934E1,2.947670288E0,1.142905948E1
1.492190171E1,-7.680528259E-1,-1.103340591E1,3.740721130E0,1.167557047E1
1.493194071E1,-9.304650879E-1,-1.095586716E1,3.900888062E0,1.166677839E1
1.494197871E1,-8.295748901E-1,-1.083087708E1,3.593726807E0,1.144163297E1
1.495201671E1,-5.574407959E-1,-1.053269714E1,3.061733093E0,1.098283474E1
1.496205471E1,6.286926270E-3,-1.014051270E1,2.705024872E0,1.049510347E1
1.497209371E1,6.891668701E-1,-9.702224121E0,2.402354279E0,1.001895254E1
1.498213171E1,1.197360077E0,-9.395661621E0,2.099234619E0,9.701490320E0
1.499216971E1,1.577569427E0,-9.205856323E0,1.739682312E0,9.500684738E0
1.500220771E1,2.001338196E0,-8.930878143E0,1.443148956E0,9.265452924E0
1.501224671E1,2.289189606E0,-8.696166229E0,1.288670197E0,9.084292323E0
1.502228471E1,2.415975952E0,-8.824748840E0,1.278940430E0,9.238442538E0
1.503232271E1,2.786156158E0,-9.060209198E0,1.401685181E0,9.582002828E0
1.504236071E1,3.461401978E0,-9.239835663E0,1.616039429E0,9.998372376E0
1.505239971E1,4.075275421E0,-9.337133331E0,1.753303986E0,1.033750470E1
1.506243771E1,4.065994720E0,-9.236841888E0,3.817511444E0,1.079003961E1
1.507247571E1,4.655319214E0,-9.360484772E0,4.224515076E0,1.127551328E1
1.508251471E1,6.230792999E0,-9.679770813E0,1.380728760E0,1.159427256E1
1.509255271E1,6.597530365E0,-9.589957581E0,4.466711426E-1,1.164878571E1
1.510259071E1,7.006030884E0,-9.604477386E0,3.451821899E-1,1.189325882E1
1.511262871E1,7.901917877E0,-9.272168427E0,-1.227597198E0,1.224419897E1
1.512266771E1,9.707612915E0,-7.951464844E0,-7.701035614E0,1.472309381E1
1.513270571E1,9.860295410E0,-7.467820587E0,-6.169270935E0,1.382221667E1
1.514274371E1,8.191266174E0,-7.403903503E0,-3.102598114E0,1.146912131E1
1.515278171E1,6.615493011E0,-7.155719604E0,-2.166594543E0,9.983145935E0
1.516282071E1,5.023852844E0,-6.928043060E0,-2.130968628E0,8.819178269E0
1.517285871E1,3.681743774E0,-6.976242828E0,-9.099577332E-1,7.940480105E0
1.518289671E1,3.389850769E0,-7.594906311E0,-4.775070190E-2,8.317209282E0
1.519293471E1,4.024680634E0,-8.120762787E0,1.462458801E-1,9.064559024E0
1.520297371E1,4.463268585E0,-8.362959137E0,5.604345703E-1,9.495995940E0
1.521301171E1,4.595743103E0,-8.381819916E0,8.408015442E-1,9.595973479E0
1.522304971E1,4.449646912E0,-8.291407928E0,7.158114624E-1,9.437117628E0
1.523308771E1,3.901337128E0,-8.208779755E0,2.386038208E-1,9.091833051E0
1.524312671E1,3.192860413E0,-8.182284851E0,-7.834707642E-1,8.818047938E0
1.525316471E1,3.288661194E0,-8.389004974E0,-1.048419800E0,9.071377017E0
1.526320271E1,4.761747894E0,-8.562494202E0,1.454974365E-1,9.798557009E0
1.527324171E1,5.916895752E0,-8.554261322E0,1.091979218E0,1.045836798E1
1.528327971E1,6.234834595E0,-8.598718872E0,1.539249115E0,1.073221396E1
1.529331771E1,6.041885834E0,-8.721463623E0,1.820663910E0,1.076490266E1
1.530335571E1,5.764362946E0,-8.916508026E0,2.008074188E0,1.080575576E1
1.531339471E1,5.672603760E0,-9.261839905E0,2.206262054E0,1.108276608E1
1.532343271E1,5.843248901E0,-9.620344391E0,2.192490692E0,1.146741468E1
1.533347071E1,6.193520508E0,-9.842931519E0,1.842368774E0,1.177443501E1
1.534350871E1,6.446793823E0,-9.838590546E0,1.171912994E0,1.182084576E1
1.535354771E1,6.316864014E0,-9.723629608E0,-3.385958862E-1,1.160027547E1
1.536358571E1,5.589077454E0,-9.774224396E0,-5.030588837E0,1.233207498E1
1.537362371E1,6.169270935E0,-1.033286270E1,-7.192842407E0,1.402016182E1
1.538366171E1,8.441695404E0,-1.115884506E1,-2.079625397E0,1.414591412E1
1.539370071E1,9.507329407E0,-1.202838684E1,3.938310242E-1,1.533709573E1
1.540373871E1,9.064400482E0,-1.257774445E1,7.704478455E-1,1.552277686E1
1.541377671E1,7.070696411E0,-1.217882401E1,-1.157243500E0,1.413002882E1
1.542381471E1,5.044210510E0,-1.130030090E1,-5.301675110E0,1.346286073E1
1.543385371E1,3.835174713E0,-1.079644867E1,-5.393434296E0,1.266337248E1
1.544389171E1,3.556005249E0,-1.082758392E1,-2.376158752E0,1.164164410E1
1.545392971E1,3.709735565E0,-1.136287079E1,-2.850073242E-1,1.195651286E1
1.546396771E1,4.169878693E0,-1.198213303E1,9.828561401E-1,1.272499141E1
1.547400671E1,4.629722443E0,-1.239228012E1,1.995500336E0,1.337852601E1
1.548404471E1,4.709506531E0,-1.278236893E1,2.410587158E0,1.383399211E1
1.549408271E1,4.269272003E0,-1.335657486E1,2.314037933E0,1.421195085E1
1.550412171E1,3.767216034E0,-1.391865601E1,1.852697296E0,1.453799811E1
1.551415971E1,3.194806366E0,-1.442475357E1,1.130598907E0,1.481750847E1
1.552419771E1,2.609373779E0,-1.480211884E1,5.230123901E-1,1.503945130E1
1.553423571E1,2.005379791E0,-1.470407272E1,7.514373779E-2,1.484038239E1
1.554427471E1,1.558708649E0,-1.396700546E1,-1.508862305E-1,1.405452172E1
1.555431271E1,1.471140747E0,-1.310345123E1,-4.297563171E-1,1.319277756E1
1.556435071E1,1.680405579E0,-1.224977646E1,-7.182064819E-1,1.238533838E1
1.557438958E1,1.767524414E0,-1.113654144E1,-6.382727051E-1,1.129398468E1
1.558442858E1,1.627415771E0,-1.014829651E1,-3.957769775E-1,1.028557454E1
1.559446658E1,1.372346191E0,-9.318721619E0,-2.231858826E-1,9.421874474E0
1.560450458E1,1.406325531E0,-8.790619812E0,3.062631226E-1,8.907667780E0
1.561454258E1,1.521136780E0,-8.700058136E0,2.704875183E-1,8.836177464E0
1.562458158E1,1.833986206E0,-8.515192566E0,-3.936813354E-2,8.710543019E0
1.563461958E1,2.159110107E0,-8.265511780E0,2.339634705E-1,8.546062271E0
1.564465758E1,2.035766602E0,-7.999664612E0,8.122109985E-1,8.294496143E0
1.565469558E1,1.778601379E0,-7.636968842E0,1.354533234E0,7.957479264E0
1.566473458E1,1.694326630E0,-7.402256927E0,1.566642151E0,7.753613221E0
1.567477258E1,1.841320953E0,-7.026687927E0,1.479972382E0,7.413172353E0
1.568481058E1,2.035317535E0,-6.683451691E0,1.431622925E0,7.131660969E0
1.569484958E1,1.909579010E0,-6.303841095E0,1.485510864E0,6.752158697E0
1.570488758E1,1.364412689E0,-5.953419800E0,1.373992767E0,6.260406171E0
1.571492558E1,5.490582275E-1,-5.760021973E0,1.406924286E0,5.954725351E0
1.572496358E1,-8.457412720E-2,-5.664969635E0,1.622625732E0,5.893381713E0
1.573500258E1,-5.002597046E-1,-5.512885895E0,1.629511414E0,5.770396703E0
1.574504058E1,-8.292755127E-1,-5.270689545E0,1.406026154E0,5.517678470E0
1.575507858E1,-1.043629761E0,-4.971910858E0,1.028960266E0,5.183417781E0
1.576511658E1,-1.144370270E0,-4.649481354E0,5.551954651E-1,4.820321792E0
1.577515558E1,-1.056203613E0,-4.388723602E0,1.901046753E-2,4.514069376E0
1.578519358E1,-9.410929871E-1,-4.279301147E0,-5.942642212E-1,4.421676637E0
1.579523158E1,-7.054829407E-1,-4.295317841E0,-1.283580780E0,4.538175972E0
1.580526958E1,-3.121009827E-1,-4.477638702E0,-2.099983063E0,4.955460043E0
1.581530858E1,2.757266235E-1,-4.984035645E0,-2.988385620E0,5.817824773E0
1.582534658E1,9.273216248E-1,-6.272556152E0,-4.691843262E0,7.887856443E0
1.583538458E1,2.329006805E0,-7.970325623E0,-7.537874908E0,1.121471896E1
1.584542358E1,4.998106384E0,-9.704020386E0,-1.051084259E1,1.515344486E1
1.585546158E1,9.455537109E0,-1.078162949E1,-1.352766907E1,1.971417122E1
1.586549958E1,1.450827988E1,-1.176134216E1,-1.759665756E1,2.566050880E1
1.587553758E1,1.766536469E1,-1.328637085E1,-2.080688187E1,3.035653295E1
1.588557658E1,1.596430206E1,-1.457399323E1,-1.465497482E1,2.611567548E1
1.589561458E1,1.201880676E1,-1.496947083E1,-4.755610657E0,1.977757835E1
1.590565258E1,1.016027161E1,-1.329160995E1,-3.022065582E0,1.700090864E1
1.591569058E1,9.564510498E0,-8.737330627E0,-4.815486145E0,1.382062641E1
1.592572958E1,8.483159180E0,-3.970493317E0,-5.053042145E0,1.064246408E1
1.593576758E1,7.182064819E0,-4.655319214E-1,-4.874912567E0,8.692729581E0
1.594580558E1,5.482648773E0,1.339115295E0,-4.173022156E0,7.019029937E0
1.595584358E1,4.377047882E0,3.614982605E-1,-1.326990509E0,4.588042389E0
1.596588258E1,4.942122803E0,-3.565285950E0,3.061882782E0,6.819895004E0
1.597592058E1,5.469775543E0,-8.251291351E0,5.925877075E0,1.153768922E1
1.598595858E1,5.986950073E0,-1.252939499E1,7.335346069E0,1.570466848E1
1.599599658E1,6.742429047E0,-1.514430725E1,5.146896973E0,1.735802235E1
1.600603558E1,1.020682480E1,-1.925026886E1,-1.382929184E1,2.580700363E1
1.601607358E1,1.024694138E1,-2.124561951E1,-1.788810150E1,2.960338378E1
1.602611158E1,3.656147003E0,-1.602926697E1,-4.595443726E-2,1.644101342E1
1.603615058E1,-2.802023163E0,-9.657167816E0,9.597741394E0,1.390067854E1
1.604618858E1,-7.031328278E0,-5.740562439E0,7.843090210E0,1.199615349E1
1.605622658E1,-7.607180786E0,-5.343288574E0,2.363435211E0,9.591963214E0
1.606626458E1,-6.699169006E0,-7.175628204E0,-2.222578125E0,1.006520536E1
1.607630358E1,-4.825515289E0,-8.625363464E0,-2.547552338E0,1.020649380E1
1.608634158E1,-2.411036224E0,-9.660910034E0,4.864883423E-2,9.957341265E0
1.609637958E1,-4.761598206E-1,-1.064750839E1,1.453327789E0,1.075678041E1
1.610641758E1,5.040019226E-1,-1.130658783E1,9.897418213E-1,1.136100943E1
1.611645658E1,1.079255676E0,-1.156584869E1,1.375190277E0,1.169721322E1
1.612649458E1,1.181642761E0,-1.149025589E1,2.159858551E0,1.175105310E1
1.613653258E1,5.981561279E-1,-1.093176727E1,3.027005310E0,1.135887704E1
1.614657058E1,1.930984497E-2,-1.026086243E1,3.536246338E0,1.085314281E1
1.615660958E1,-4.281097412E-2,-9.824220428E0,3.551963654E0,1.044670214E1
1.616664758E1,1.865121460E-1,-9.487420807E0,3.218606873E0,1.002024803E1
1.617668558E1,6.212081909E-1,-9.293124847E0,2.832559662E0,9.735063599E0
1.618672358E1,1.366358643E0,-9.124725037E0,2.574795685E0,9.578993462E0
1.619676258E1,2.176324310E0,-9.046288147E0,2.571801910E0,9.653283473E0
1.620680058E1,2.751128998E0,-9.122030640E0,2.484683075E0,9.846512263E0
1.621683858E1,3.101550293E0,-9.298363953E0,2.256557465E0,1.005839142E1
1.622687758E1,3.532354431E0,-9.457183685E0,2.004781036E0,1.029247289E1
1.623691558E1,3.931424561E0,-9.421557770E0,1.793270874E0,1.036521444E1
1.624695358E1,4.161196747E0,-9.221274261E0,2.138602753E0,1.034026494E1
1.625699158E1,4.188440094E0,-8.968300323E0,3.208877106E0,1.040530314E1
1.626703058E1,4.567152557E0,-9.014105072E0,2.233505402E0,1.034898638E1
1.627706858E1,5.017865295E0,-9.128467255E0,4.113446045E-1,1.042483050E1
1.628710658E1,6.157146149E0,-8.620274048E0,-5.656437378E0,1.200894905E1
1.629714458E1,8.810378723E0,-7.677384796E0,-1.222807159E1,1.691421726E1
1.630718358E1,7.918233948E0,-7.847730560E0,-4.837340698E0,1.215257869E1
1.631722158E1,6.552623749E0,-8.206983490E0,-1.790277100E-1,1.050349975E1
1.632725958E1,6.111191711E0,-8.269703064E0,9.123527527E-1,1.032313133E1
1.633729858E1,5.942193146E0,-8.222700806E0,9.328601074E-1,1.018787004E1
1.634733658E1,5.804329834E0,-8.035440216E0,6.929090881E-1,9.936733230E0
1.635737458E1,5.399571533E0,-7.738008728E0,2.502795410E-1,9.439003743E0
1.636741258E1,4.805307312E0,-7.374714203E0,-2.921923828E-1,8.806972484E0
1.637745158E1,4.147275696E0,-7.025041351E0,-6.727011108E-1,8.185574413E0
1.638748958E1,3.791166229E0,-7.053182831E0,-5.490582275E-1,8.026318855E0
1.639752758E1,4.001029816E0,-7.692503357E0,-6.750961304E-2,8.671067122E0
1.640756558E1,3.925586700E0,-8.233029327E0,2.716850281E-1,9.125065238E0
1.641760458E1,3.718118134E0,-8.480614471E0,4.643344116E-1,9.271506389E0
1.642764258E1,3.542533264E0,-8.689879303E0,5.766009521E-1,9.401915384E0
1.643768058E1,3.215613098E0,-8.843160553E0,5.884263611E-1,9.428038064E0
1.644771858E1,2.945424957E0,-8.918453979E0,2.755769348E-1,9.396291407E0
1.645775758E1,2.765798492E0,-8.968599701E0,-4.382885742E-1,9.395611676E0
1.646779558E1,2.652334442E0,-8.929680634E0,-1.346599731E0,9.412088240E0
1.647783358E1,2.673290863E0,-8.864566040E0,-1.987417145E0,9.469785743E0
1.648787258E1,3.091670837E0,-8.799750824E0,-1.850901031E0,9.508936731E0
1.649791058E1,4.235592041E0,-8.744815063E0,-6.506968689E-1,9.738348774E0
1.650794858E1,5.430856476E0,-8.672665100E0,9.187893677E-1,1.027392310E1
1.651798658E1,6.039640503E0,-8.785979462E0,2.169139252E0,1.088006699E1
1.652802558E1,5.810916138E0,-9.043593750E0,3.018173676E0,1.116524548E1
1.653806358E1,5.277874603E0,-9.434880066E0,2.802472229E0,1.116811411E1
1.654810158E1,4.925657043E0,-9.885742493E0,1.999541931E0,1.122444519E1
1.655813958E1,4.297712860E0,-1.012569351E1,9.620494080E-1,1.104199004E1
1.656817858E1,3.551514587E0,-1.020457947E1,-9.827064514E-1,1.084953501E1
1.657821533E1,3.255729675E0,-1.044767395E1,-2.641556854E0,1.125750813E1
1.658825333E1,3.939807129E0,-1.091215805E1,-2.576591949E0,1.188427952E1
1.659829133E1,4.932991791E0,-1.129251709E1,-1.612297211E0,1.242798666E1
1.660833033E1,5.421276398E0,-1.123788071E1,-7.189549255E-1,1.249788369E1
1.661836833E1,5.802832947E0,-1.098580490E1,1.356179810E-1,1.242494152E1
1.662840633E1,6.594835968E0,-1.089389603E1,8.759783936E-1,1.276464532E1
1.663844533E1,7.497908020E0,-1.094224548E1,1.005459137E0,1.330271810E1
1.664848333E1,8.344697113E0,-1.101738922E1,3.617976379E-1,1.382561871E1
1.665852133E1,9.057065735E0,-1.106469086E1,-1.341360626E0,1.436165282E1
1.666855933E1,8.598419495E0,-1.100271973E1,-4.507426758E0,1.467343025E1
1.667859833E1,6.268065491E0,-1.097936829E1,-6.643185425E0,1.428170457E1
1.668863633E1,4.044888611E0,-1.097233292E1,-5.190456390E0,1.279429760E1
1.669867433E1,2.632874908E0,-1.085497696E1,-2.159858551E0,1.137662270E1
1.670871233E1,1.911824341E0,-1.081216599E1,-2.866539001E-1,1.098363219E1
1.671875133E1,2.330952759E0,-1.104717728E1,3.600013733E-1,1.129615278E1
1.672878933E1,3.671415253E0,-1.147289200E1,1.380429382E0,1.212485571E1
1.673882733E1,4.465064850E0,-1.194710587E1,1.998194733E0,1.290979957E1
1.674886533E1,4.609963531E0,-1.248478775E1,2.209255829E0,1.349083023E1
1.675890433E1,4.455634460E0,-1.303743851E1,2.484084320E0,1.399993415E1
1.676894233E1,4.078119507E0,-1.358589798E1,2.467917938E0,1.439785753E1
1.677898033E1,3.743415527E0,-1.389365799E1,2.278561707E0,1.456841569E1
1.678901933E1,3.506009216E0,-1.362825989E1,2.152074738E0,1.423562411E1
1.679905733E1,3.372187500E0,-1.293295578E1,2.061363373E0,1.352339501E1
1.680909533E1,3.390150146E0,-1.212343918E1,1.879341888E0,1.272803290E1
1.681913333E1,3.376528473E0,-1.123623413E1,1.405427399E0,1.181647698E1
1.682917233E1,3.412304077E0,-1.040082138E1,5.547463989E-1,1.096032153E1
